wavelength_axis,light_level,mean_wavelength,total_power
1250.0,-63.93,1300.851,-29.37583893995191
1250.015,-62.67,,
1250.03,-63.57,,
1250.045,-64.5,,
1250.06,-64.46,,
1250.075,-63.27,,
1250.09,-62.96,,
1250.105,-64.38,,
1250.12,-66.01,,
1250.135,-68.21,,
1250.15,-65.56,,
1250.165,-63.33,,
1250.18,-62.58,,
1250.195,-63.54,,
1250.21,-64.31,,
1250.225,-64.18,,
1250.24,-62.44,,
1250.255,-62.53,,
1250.27,-63.36,,
1250.285,-65.25,,
1250.3,-64.85,,
1250.315,-63.38,,
1250.33,-62.38,,
1250.345,-62.24,,
1250.36,-63.76,,
1250.375,-62.96,,
1250.39,-62.27,,
1250.405,-61.51,,
1250.42,-61.87,,
1250.435,-62.86,,
1250.45,-64.47,,
1250.465,-63.58,,
1250.48,-62.79,,
1250.495,-62.74,,
1250.51,-63.13,,
1250.525,-64.5,,
1250.54,-64.42,,
1250.555,-63.57,,
1250.57,-62.84,,
1250.585,-64.14,,
1250.6,-65.76,,
1250.615,-69.67,,
1250.63,-66.15,,
1250.645,-65.27,,
1250.66,-63.82,,
1250.675,-65.12,,
1250.69,-65.91,,
1250.705,-65.36,,
1250.72,-64.68,,
1250.735,-63.59,,
1250.75,-64.34,,
1250.765,-65.2,,
1250.78,-68.45,,
1250.795,-65.41,,
1250.81,-63.93,,
1250.825,-63.17,,
1250.84,-66.0,,
1250.855,-64.82,,
1250.87,-65.16,,
1250.885,-63.53,,
1250.9,-63.51,,
1250.915,-64.41,,
1250.93,-66.81,,
1250.945,-66.45,,
1250.96,-64.83,,
1250.975,-64.16,,
1250.99,-63.76,,
1251.005,-65.27,,
1251.02,-66.01,,
1251.035,-67.06,,
1251.05,-64.17,,
1251.065,-64.63,,
1251.08,-66.66,,
1251.095,-71.4,,
1251.11,-67.97,,
1251.125,-65.98,,
1251.14,-65.61,,
1251.155,-65.89,,
1251.17,-68.57,,
1251.185,-69.63,,
1251.2,-67.94,,
1251.215,-66.04,,
1251.23,-68.58,,
1251.245,-210.0,,
1251.26,-210.0,,
1251.275,-210.0,,
1251.29,-68.6,,
1251.305,-66.97,,
1251.32,-73.54,,
1251.335,-210.0,,
1251.35,-77.77,,
1251.365,-68.52,,
1251.38,-66.83,,
1251.395,-72.11,,
1251.41,-210.0,,
1251.425,-210.0,,
1251.44,-210.0,,
1251.455,-71.17,,
1251.47,-67.94,,
1251.485,-79.66,,
1251.5,-87.98,,
1251.515,-72.47,,
1251.53,-67.77,,
1251.545,-67.77,,
1251.56,-72.39,,
1251.575,-210.0,,
1251.59,-210.0,,
1251.605,-70.19,,
1251.62,-66.38,,
1251.635,-66.4,,
1251.65,-68.5,,
1251.665,-72.32,,
1251.68,-67.18,,
1251.695,-65.26,,
1251.71,-65.51,,
1251.725,-67.94,,
1251.74,-68.07,,
1251.755,-67.97,,
1251.77,-66.56,,
1251.785,-65.58,,
1251.8,-67.63,,
1251.815,-76.43,,
1251.83,-86.53,,
1251.845,-67.07,,
1251.86,-66.92,,
1251.875,-69.07,,
1251.89,-210.0,,
1251.905,-210.0,,
1251.92,-78.98,,
1251.935,-66.67,,
1251.95,-67.61,,
1251.965,-74.46,,
1251.98,-73.87,,
1251.995,-71.06,,
1252.01,-67.43,,
1252.025,-73.38,,
1252.04,-87.84,,
1252.055,-210.0,,
1252.07,-210.0,,
1252.085,-74.11,,
1252.1,-67.7,,
1252.115,-72.11,,
1252.13,-72.71,,
1252.145,-69.79,,
1252.16,-69.73,,
1252.175,-67.65,,
1252.19,-75.51,,
1252.205,-210.0,,
1252.22,-210.0,,
1252.235,-210.0,,
1252.25,-210.0,,
1252.265,-71.14,,
1252.28,-79.07,,
1252.295,-78.64,,
1252.31,-210.0,,
1252.325,-68.7,,
1252.34,-67.78,,
1252.355,-77.33,,
1252.37,-210.0,,
1252.385,-210.0,,
1252.4,-78.56,,
1252.415,-210.0,,
1252.43,-75.57,,
1252.445,-210.0,,
1252.46,-75.16,,
1252.475,-210.0,,
1252.49,-78.6,,
1252.505,-82.37,,
1252.52,-210.0,,
1252.535,-210.0,,
1252.55,-210.0,,
1252.565,-210.0,,
1252.58,-210.0,,
1252.595,-70.7,,
1252.61,-78.02,,
1252.625,-72.11,,
1252.64,-210.0,,
1252.655,-76.24,,
1252.67,-210.0,,
1252.685,-75.31,,
1252.7,-82.33,,
1252.715,-80.16,,
1252.73,-77.78,,
1252.745,-210.0,,
1252.76,-210.0,,
1252.775,-210.0,,
1252.79,-74.77,,
1252.805,-80.47,,
1252.82,-72.99,,
1252.835,-210.0,,
1252.85,-210.0,,
1252.865,-210.0,,
1252.88,-77.27,,
1252.895,-73.9,,
1252.91,-210.0,,
1252.925,-72.94,,
1252.94,-210.0,,
1252.955,-73.87,,
1252.97,-72.49,,
1252.985,-69.38,,
1253.0,-79.04,,
1253.015,-75.58,,
1253.03,-67.83,,
1253.045,-68.49,,
1253.06,-69.39,,
1253.075,-73.33,,
1253.09,-70.26,,
1253.105,-71.46,,
1253.12,-66.31,,
1253.135,-69.9,,
1253.15,-68.12,,
1253.165,-70.73,,
1253.18,-68.23,,
1253.195,-65.74,,
1253.21,-65.24,,
1253.225,-66.89,,
1253.24,-67.01,,
1253.255,-65.24,,
1253.271,-66.08,,
1253.285,-64.4,,
1253.3,-65.92,,
1253.315,-64.98,,
1253.33,-66.26,,
1253.345,-64.92,,
1253.36,-65.58,,
1253.375,-65.25,,
1253.391,-67.58,,
1253.406,-68.19,,
1253.421,-65.44,,
1253.435,-66.69,,
1253.45,-66.11,,
1253.465,-67.45,,
1253.48,-67.16,,
1253.495,-68.59,,
1253.51,-66.03,,
1253.526,-66.2,,
1253.541,-66.59,,
1253.556,-66.27,,
1253.571,-66.39,,
1253.585,-64.42,,
1253.6,-67.07,,
1253.615,-65.93,,
1253.63,-67.4,,
1253.646,-65.45,,
1253.661,-66.01,,
1253.676,-63.88,,
1253.691,-66.29,,
1253.706,-66.42,,
1253.72,-66.57,,
1253.735,-66.08,,
1253.75,-65.09,,
1253.766,-66.67,,
1253.781,-66.17,,
1253.796,-68.27,,
1253.811,-65.93,,
1253.826,-65.14,,
1253.841,-65.74,,
1253.856,-67.62,,
1253.87,-67.76,,
1253.885,-67.87,,
1253.901,-65.87,,
1253.916,-64.82,,
1253.931,-66.16,,
1253.946,-65.12,,
1253.961,-64.93,,
1253.976,-63.95,,
1253.991,-64.41,,
1254.005,-63.96,,
1254.021,-65.08,,
1254.036,-65.71,,
1254.051,-64.48,,
1254.066,-64.3,,
1254.081,-64.04,,
1254.096,-65.34,,
1254.111,-64.92,,
1254.126,-65.68,,
1254.141,-63.96,,
1254.156,-65.4,,
1254.171,-65.37,,
1254.186,-67.95,,
1254.201,-67.7,,
1254.216,-65.91,,
1254.231,-65.84,,
1254.246,-67.07,,
1254.261,-68.5,,
1254.276,-66.4,,
1254.291,-67.07,,
1254.306,-64.58,,
1254.321,-67.32,,
1254.336,-67.34,,
1254.351,-68.59,,
1254.366,-65.33,,
1254.381,-65.37,,
1254.396,-65.08,,
1254.411,-66.15,,
1254.426,-67.29,,
1254.441,-64.65,,
1254.456,-65.89,,
1254.471,-65.51,,
1254.486,-67.69,,
1254.501,-66.09,,
1254.516,-66.78,,
1254.531,-65.38,,
1254.546,-66.05,,
1254.561,-67.8,,
1254.576,-66.91,,
1254.591,-67.46,,
1254.606,-64.39,,
1254.621,-65.85,,
1254.636,-65.17,,
1254.651,-67.75,,
1254.666,-65.59,,
1254.681,-66.66,,
1254.696,-64.53,,
1254.711,-65.64,,
1254.726,-66.6,,
1254.741,-65.73,,
1254.756,-64.45,,
1254.771,-63.5,,
1254.786,-65.46,,
1254.801,-65.09,,
1254.816,-66.72,,
1254.831,-66.29,,
1254.846,-64.96,,
1254.861,-65.38,,
1254.876,-66.26,,
1254.891,-67.07,,
1254.906,-66.12,,
1254.921,-66.99,,
1254.936,-65.43,,
1254.951,-69.25,,
1254.966,-68.09,,
1254.981,-70.13,,
1254.996,-67.31,,
1255.011,-68.65,,
1255.026,-67.72,,
1255.041,-72.5,,
1255.056,-72.06,,
1255.071,-68.34,,
1255.086,-69.45,,
1255.101,-67.11,,
1255.116,-69.93,,
1255.131,-68.69,,
1255.146,-71.33,,
1255.161,-68.61,,
1255.176,-71.23,,
1255.191,-69.81,,
1255.206,-210.0,,
1255.221,-210.0,,
1255.236,-70.11,,
1255.251,-71.4,,
1255.266,-69.83,,
1255.281,-92.31,,
1255.296,-69.67,,
1255.311,-210.0,,
1255.326,-69.43,,
1255.341,-76.84,,
1255.356,-210.0,,
1255.371,-210.0,,
1255.386,-74.48,,
1255.401,-69.58,,
1255.416,-72.45,,
1255.431,-69.04,,
1255.446,-78.16,,
1255.461,-66.75,,
1255.476,-67.62,,
1255.491,-65.05,,
1255.506,-68.37,,
1255.521,-68.22,,
1255.536,-68.65,,
1255.551,-65.85,,
1255.566,-65.31,,
1255.581,-67.63,,
1255.596,-67.37,,
1255.611,-68.73,,
1255.626,-65.67,,
1255.641,-67.09,,
1255.656,-66.97,,
1255.671,-74.16,,
1255.686,-69.89,,
1255.701,-70.61,,
1255.716,-70.11,,
1255.731,-69.9,,
1255.746,-210.0,,
1255.761,-210.0,,
1255.776,-210.0,,
1255.791,-73.31,,
1255.806,-78.46,,
1255.821,-210.0,,
1255.836,-210.0,,
1255.851,-210.0,,
1255.866,-69.86,,
1255.881,-68.71,,
1255.896,-68.96,,
1255.911,-210.0,,
1255.926,-73.39,,
1255.941,-77.16,,
1255.956,-70.31,,
1255.971,-210.0,,
1255.986,-210.0,,
1256.001,-210.0,,
1256.016,-210.0,,
1256.031,-76.75,,
1256.046,-76.28,,
1256.061,-73.96,,
1256.076,-73.15,,
1256.091,-68.13,,
1256.106,-69.86,,
1256.121,-69.26,,
1256.136,-69.71,,
1256.151,-69.43,,
1256.166,-69.28,,
1256.181,-68.08,,
1256.196,-69.3,,
1256.211,-68.92,,
1256.226,-67.56,,
1256.241,-68.02,,
1256.256,-66.64,,
1256.271,-66.17,,
1256.286,-65.9,,
1256.301,-66.49,,
1256.316,-65.52,,
1256.331,-65.07,,
1256.346,-64.65,,
1256.361,-65.07,,
1256.376,-65.35,,
1256.391,-66.57,,
1256.406,-66.99,,
1256.421,-66.3,,
1256.436,-66.32,,
1256.451,-66.48,,
1256.466,-67.91,,
1256.481,-67.58,,
1256.496,-75.26,,
1256.511,-71.89,,
1256.526,-70.24,,
1256.541,-68.07,,
1256.556,-74.74,,
1256.571,-76.61,,
1256.586,-72.36,,
1256.601,-70.25,,
1256.616,-69.55,,
1256.631,-69.6,,
1256.646,-70.73,,
1256.661,-71.04,,
1256.676,-65.88,,
1256.691,-65.7,,
1256.706,-66.54,,
1256.721,-66.98,,
1256.736,-68.71,,
1256.751,-66.28,,
1256.766,-65.07,,
1256.781,-65.87,,
1256.796,-67.7,,
1256.811,-72.47,,
1256.826,-68.56,,
1256.841,-66.81,,
1256.856,-66.95,,
1256.871,-67.1,,
1256.886,-68.01,,
1256.901,-66.76,,
1256.916,-65.62,,
1256.931,-65.26,,
1256.946,-66.5,,
1256.961,-67.63,,
1256.976,-66.99,,
1256.991,-65.74,,
1257.006,-65.55,,
1257.021,-65.17,,
1257.036,-65.84,,
1257.051,-66.11,,
1257.066,-65.73,,
1257.081,-66.62,,
1257.096,-66.94,,
1257.111,-69.54,,
1257.126,-70.54,,
1257.141,-92.86,,
1257.156,-73.83,,
1257.171,-73.41,,
1257.186,-210.0,,
1257.201,-73.65,,
1257.216,-69.43,,
1257.231,-67.88,,
1257.246,-69.17,,
1257.261,-66.34,,
1257.276,-67.8,,
1257.291,-67.42,,
1257.306,-72.54,,
1257.321,-69.78,,
1257.336,-78.56,,
1257.351,-210.0,,
1257.366,-210.0,,
1257.381,-210.0,,
1257.396,-210.0,,
1257.411,-210.0,,
1257.426,-69.87,,
1257.441,-88.47,,
1257.456,-73.46,,
1257.471,-73.4,,
1257.486,-69.92,,
1257.501,-67.05,,
1257.516,-66.8,,
1257.531,-65.33,,
1257.546,-67.31,,
1257.561,-65.1,,
1257.576,-65.15,,
1257.591,-65.75,,
1257.606,-68.67,,
1257.621,-68.56,,
1257.636,-68.77,,
1257.651,-70.91,,
1257.666,-67.52,,
1257.681,-83.66,,
1257.696,-74.45,,
1257.711,-83.04,,
1257.726,-71.8,,
1257.741,-71.1,,
1257.756,-70.44,,
1257.771,-69.24,,
1257.786,-67.5,,
1257.801,-67.14,,
1257.816,-67.29,,
1257.831,-66.22,,
1257.846,-69.44,,
1257.861,-68.54,,
1257.876,-67.64,,
1257.891,-68.67,,
1257.906,-69.93,,
1257.921,-71.93,,
1257.936,-70.57,,
1257.951,-72.6,,
1257.966,-67.71,,
1257.981,-68.57,,
1257.996,-67.5,,
1258.011,-68.24,,
1258.026,-67.46,,
1258.041,-69.15,,
1258.056,-69.37,,
1258.071,-67.64,,
1258.086,-66.92,,
1258.101,-67.24,,
1258.116,-66.98,,
1258.131,-67.77,,
1258.146,-67.74,,
1258.161,-67.33,,
1258.176,-66.9,,
1258.191,-65.89,,
1258.206,-65.51,,
1258.221,-66.55,,
1258.236,-66.73,,
1258.251,-65.53,,
1258.266,-66.17,,
1258.281,-65.82,,
1258.296,-67.64,,
1258.311,-64.78,,
1258.326,-65.01,,
1258.341,-64.85,,
1258.356,-63.92,,
1258.371,-64.76,,
1258.386,-65.21,,
1258.401,-65.14,,
1258.416,-64.42,,
1258.431,-65.62,,
1258.446,-64.33,,
1258.461,-65.32,,
1258.476,-64.88,,
1258.491,-65.24,,
1258.506,-64.66,,
1258.521,-64.3,,
1258.536,-65.94,,
1258.551,-64.7,,
1258.566,-65.63,,
1258.581,-65.86,,
1258.596,-65.94,,
1258.611,-64.72,,
1258.626,-65.24,,
1258.641,-65.63,,
1258.656,-65.3,,
1258.671,-68.87,,
1258.686,-67.32,,
1258.701,-68.17,,
1258.716,-67.43,,
1258.731,-68.99,,
1258.746,-67.46,,
1258.761,-68.17,,
1258.776,-68.62,,
1258.791,-69.4,,
1258.806,-70.91,,
1258.821,-68.16,,
1258.836,-69.27,,
1258.851,-66.29,,
1258.866,-66.62,,
1258.881,-68.14,,
1258.896,-67.82,,
1258.911,-67.87,,
1258.926,-67.74,,
1258.941,-67.71,,
1258.956,-66.52,,
1258.971,-73.4,,
1258.986,-68.35,,
1259.001,-69.09,,
1259.016,-67.67,,
1259.031,-70.51,,
1259.046,-69.21,,
1259.061,-69.0,,
1259.076,-70.08,,
1259.091,-67.73,,
1259.106,-67.01,,
1259.121,-66.67,,
1259.136,-66.68,,
1259.151,-64.45,,
1259.166,-64.48,,
1259.181,-64.45,,
1259.196,-65.34,,
1259.211,-67.78,,
1259.226,-66.99,,
1259.241,-65.94,,
1259.256,-66.47,,
1259.271,-69.95,,
1259.286,-77.32,,
1259.301,-72.66,,
1259.316,-69.41,,
1259.331,-69.67,,
1259.346,-70.2,,
1259.361,-74.61,,
1259.376,-74.04,,
1259.391,-66.67,,
1259.406,-66.41,,
1259.421,-65.71,,
1259.436,-66.6,,
1259.451,-70.29,,
1259.466,-70.32,,
1259.481,-68.21,,
1259.496,-66.33,,
1259.511,-71.99,,
1259.526,-70.6,,
1259.541,-71.44,,
1259.556,-68.71,,
1259.571,-68.54,,
1259.586,-69.36,,
1259.601,-70.16,,
1259.616,-72.52,,
1259.631,-66.67,,
1259.646,-67.05,,
1259.661,-67.35,,
1259.676,-68.0,,
1259.691,-65.32,,
1259.706,-65.43,,
1259.721,-65.47,,
1259.736,-64.9,,
1259.751,-67.71,,
1259.766,-67.0,,
1259.781,-66.4,,
1259.796,-66.93,,
1259.811,-68.37,,
1259.826,-68.2,,
1259.841,-68.8,,
1259.856,-67.95,,
1259.871,-66.81,,
1259.886,-67.38,,
1259.901,-68.73,,
1259.916,-69.3,,
1259.931,-65.24,,
1259.946,-65.37,,
1259.961,-66.97,,
1259.976,-65.54,,
1259.991,-66.03,,
1260.006,-66.78,,
1260.021,-66.43,,
1260.036,-66.62,,
1260.051,-77.31,,
1260.066,-73.04,,
1260.081,-69.25,,
1260.096,-68.59,,
1260.111,-78.38,,
1260.126,-210.0,,
1260.141,-210.0,,
1260.156,-210.0,,
1260.171,-68.26,,
1260.186,-70.46,,
1260.201,-71.12,,
1260.216,-75.19,,
1260.231,-66.85,,
1260.246,-67.36,,
1260.261,-68.01,,
1260.276,-69.09,,
1260.291,-70.97,,
1260.306,-69.21,,
1260.321,-69.75,,
1260.336,-68.69,,
1260.351,-84.98,,
1260.366,-210.0,,
1260.381,-86.09,,
1260.396,-80.05,,
1260.411,-72.01,,
1260.426,-210.0,,
1260.441,-210.0,,
1260.456,-210.0,,
1260.471,-68.07,,
1260.486,-66.42,,
1260.501,-69.08,,
1260.516,-73.16,,
1260.531,-75.94,,
1260.546,-68.34,,
1260.561,-68.12,,
1260.576,-69.54,,
1260.591,-210.0,,
1260.606,-210.0,,
1260.621,-72.65,,
1260.636,-70.05,,
1260.651,-210.0,,
1260.666,-210.0,,
1260.681,-210.0,,
1260.696,-72.65,,
1260.711,-69.91,,
1260.726,-210.0,,
1260.741,-210.0,,
1260.756,-210.0,,
1260.771,-71.74,,
1260.786,-73.87,,
1260.801,-70.27,,
1260.816,-86.89,,
1260.831,-210.0,,
1260.846,-69.49,,
1260.861,-68.08,,
1260.876,-69.61,,
1260.891,-210.0,,
1260.906,-74.46,,
1260.921,-69.48,,
1260.936,-68.16,,
1260.951,-70.65,,
1260.966,-210.0,,
1260.981,-72.94,,
1260.996,-72.59,,
1261.011,-67.09,,
1261.026,-70.4,,
1261.041,-88.08,,
1261.056,-72.89,,
1261.071,-66.82,,
1261.086,-65.75,,
1261.101,-67.94,,
1261.116,-68.21,,
1261.131,-71.71,,
1261.146,-66.49,,
1261.161,-66.16,,
1261.176,-75.9,,
1261.191,-210.0,,
1261.206,-210.0,,
1261.221,-70.86,,
1261.236,-82.6,,
1261.251,-75.71,,
1261.266,-210.0,,
1261.281,-210.0,,
1261.297,-77.29,,
1261.312,-67.32,,
1261.326,-67.91,,
1261.341,-73.28,,
1261.356,-68.43,,
1261.371,-66.88,,
1261.386,-64.58,,
1261.401,-65.92,,
1261.417,-67.49,,
1261.432,-67.03,,
1261.447,-64.08,,
1261.461,-64.09,,
1261.476,-65.87,,
1261.491,-67.78,,
1261.506,-70.9,,
1261.521,-66.12,,
1261.536,-66.61,,
1261.552,-69.76,,
1261.567,-210.0,,
1261.582,-210.0,,
1261.597,-69.4,,
1261.611,-72.54,,
1261.626,-70.6,,
1261.641,-210.0,,
1261.656,-210.0,,
1261.672,-72.04,,
1261.687,-67.94,,
1261.702,-75.51,,
1261.717,-210.0,,
1261.732,-69.47,,
1261.746,-66.65,,
1261.761,-65.03,,
1261.776,-68.38,,
1261.792,-70.69,,
1261.807,-210.0,,
1261.822,-70.77,,
1261.837,-68.05,,
1261.852,-82.99,,
1261.867,-210.0,,
1261.882,-210.0,,
1261.896,-210.0,,
1261.911,-210.0,,
1261.927,-210.0,,
1261.942,-210.0,,
1261.957,-210.0,,
1261.972,-210.0,,
1261.987,-210.0,,
1262.002,-210.0,,
1262.017,-210.0,,
1262.031,-210.0,,
1262.047,-210.0,,
1262.062,-210.0,,
1262.077,-210.0,,
1262.092,-210.0,,
1262.107,-210.0,,
1262.122,-210.0,,
1262.137,-210.0,,
1262.152,-210.0,,
1262.167,-210.0,,
1262.182,-210.0,,
1262.197,-210.0,,
1262.212,-69.98,,
1262.227,-69.9,,
1262.242,-70.2,,
1262.257,-210.0,,
1262.272,-67.92,,
1262.287,-67.88,,
1262.302,-66.34,,
1262.317,-71.52,,
1262.332,-210.0,,
1262.347,-210.0,,
1262.362,-82.65,,
1262.377,-71.84,,
1262.392,-210.0,,
1262.407,-210.0,,
1262.422,-210.0,,
1262.437,-210.0,,
1262.452,-210.0,,
1262.467,-210.0,,
1262.482,-210.0,,
1262.497,-210.0,,
1262.512,-73.29,,
1262.527,-75.92,,
1262.542,-75.58,,
1262.557,-72.58,,
1262.572,-68.01,,
1262.587,-69.76,,
1262.602,-72.6,,
1262.617,-67.97,,
1262.632,-71.6,,
1262.647,-66.57,,
1262.662,-66.37,,
1262.677,-65.87,,
1262.692,-67.74,,
1262.707,-68.98,,
1262.722,-67.78,,
1262.737,-66.84,,
1262.752,-66.74,,
1262.767,-72.29,,
1262.782,-77.9,,
1262.797,-72.52,,
1262.812,-66.34,,
1262.827,-66.63,,
1262.842,-81.85,,
1262.857,-73.6,,
1262.872,-68.48,,
1262.887,-65.26,,
1262.902,-65.69,,
1262.917,-65.99,,
1262.932,-70.63,,
1262.947,-67.13,,
1262.962,-64.53,,
1262.977,-64.0,,
1262.992,-64.95,,
1263.007,-69.3,,
1263.022,-66.86,,
1263.037,-65.18,,
1263.052,-63.11,,
1263.067,-63.52,,
1263.082,-65.21,,
1263.097,-63.86,,
1263.112,-62.96,,
1263.127,-62.27,,
1263.142,-63.54,,
1263.157,-64.4,,
1263.172,-66.15,,
1263.187,-63.4,,
1263.202,-62.93,,
1263.217,-64.25,,
1263.232,-65.68,,
1263.247,-67.64,,
1263.262,-64.14,,
1263.277,-64.45,,
1263.292,-63.59,,
1263.307,-66.36,,
1263.322,-66.18,,
1263.337,-64.3,,
1263.352,-62.97,,
1263.367,-62.62,,
1263.382,-64.11,,
1263.397,-63.8,,
1263.412,-63.1,,
1263.427,-62.17,,
1263.442,-62.62,,
1263.457,-64.03,,
1263.472,-64.73,,
1263.487,-64.21,,
1263.502,-62.93,,
1263.517,-63.54,,
1263.532,-64.9,,
1263.547,-68.78,,
1263.562,-66.5,,
1263.577,-65.45,,
1263.592,-65.44,,
1263.607,-67.67,,
1263.622,-72.3,,
1263.637,-66.3,,
1263.652,-66.2,,
1263.667,-68.37,,
1263.682,-74.88,,
1263.697,-79.97,,
1263.712,-68.77,,
1263.727,-66.21,,
1263.742,-66.24,,
1263.757,-70.87,,
1263.772,-68.98,,
1263.787,-65.53,,
1263.802,-63.82,,
1263.817,-64.35,,
1263.832,-66.41,,
1263.847,-64.87,,
1263.862,-63.01,,
1263.877,-62.68,,
1263.892,-63.83,,
1263.907,-65.42,,
1263.922,-65.16,,
1263.937,-63.7,,
1263.952,-62.76,,
1263.967,-64.13,,
1263.982,-66.32,,
1263.997,-68.51,,
1264.012,-64.33,,
1264.027,-63.72,,
1264.042,-64.26,,
1264.057,-67.02,,
1264.072,-68.6,,
1264.087,-65.34,,
1264.102,-66.22,,
1264.117,-69.18,,
1264.132,-76.92,,
1264.147,-71.65,,
1264.162,-66.73,,
1264.177,-65.29,,
1264.192,-66.45,,
1264.207,-73.08,,
1264.222,-67.9,,
1264.237,-66.55,,
1264.252,-64.73,,
1264.267,-64.92,,
1264.282,-66.82,,
1264.297,-69.2,,
1264.312,-65.65,,
1264.327,-63.97,,
1264.342,-64.61,,
1264.357,-67.03,,
1264.372,-68.09,,
1264.387,-66.82,,
1264.402,-65.28,,
1264.417,-66.68,,
1264.432,-69.9,,
1264.447,-210.0,,
1264.462,-69.55,,
1264.477,-68.11,,
1264.492,-68.22,,
1264.507,-74.73,,
1264.522,-210.0,,
1264.537,-71.65,,
1264.552,-66.45,,
1264.567,-68.3,,
1264.582,-74.93,,
1264.597,-210.0,,
1264.612,-69.15,,
1264.627,-66.87,,
1264.642,-66.77,,
1264.657,-76.22,,
1264.672,-68.05,,
1264.687,-65.47,,
1264.702,-64.23,,
1264.717,-65.06,,
1264.732,-66.87,,
1264.747,-68.08,,
1264.762,-66.84,,
1264.777,-64.64,,
1264.792,-65.22,,
1264.807,-69.26,,
1264.822,-68.31,,
1264.837,-67.69,,
1264.852,-65.01,,
1264.867,-66.84,,
1264.882,-71.51,,
1264.897,-210.0,,
1264.912,-71.57,,
1264.927,-68.82,,
1264.942,-68.6,,
1264.957,-72.79,,
1264.972,-210.0,,
1264.987,-69.5,,
1265.002,-66.1,,
1265.017,-65.6,,
1265.032,-68.34,,
1265.047,-73.26,,
1265.062,-67.2,,
1265.077,-65.18,,
1265.092,-65.21,,
1265.107,-66.13,,
1265.122,-66.63,,
1265.137,-64.47,,
1265.152,-64.16,,
1265.167,-64.41,,
1265.182,-65.97,,
1265.197,-67.08,,
1265.212,-66.06,,
1265.227,-64.63,,
1265.242,-65.53,,
1265.257,-68.38,,
1265.272,-70.61,,
1265.287,-69.87,,
1265.302,-65.94,,
1265.317,-68.33,,
1265.332,-210.0,,
1265.347,-210.0,,
1265.362,-210.0,,
1265.377,-210.0,,
1265.392,-210.0,,
1265.407,-210.0,,
1265.422,-210.0,,
1265.437,-210.0,,
1265.452,-71.51,,
1265.467,-69.34,,
1265.482,-76.58,,
1265.497,-210.0,,
1265.512,-210.0,,
1265.527,-70.26,,
1265.542,-70.29,,
1265.557,-69.98,,
1265.572,-72.35,,
1265.587,-69.4,,
1265.602,-67.36,,
1265.617,-67.1,,
1265.632,-65.36,,
1265.647,-68.73,,
1265.662,-66.57,,
1265.677,-66.88,,
1265.692,-66.77,,
1265.707,-67.98,,
1265.722,-67.86,,
1265.737,-68.01,,
1265.752,-68.53,,
1265.767,-65.47,,
1265.782,-68.94,,
1265.797,-72.41,,
1265.812,-73.94,,
1265.827,-74.47,,
1265.842,-68.0,,
1265.857,-69.63,,
1265.872,-73.16,,
1265.887,-210.0,,
1265.902,-67.65,,
1265.917,-66.53,,
1265.932,-66.36,,
1265.947,-67.74,,
1265.962,-70.68,,
1265.977,-67.92,,
1265.992,-66.53,,
1266.007,-66.76,,
1266.022,-210.0,,
1266.037,-210.0,,
1266.052,-76.43,,
1266.067,-71.54,,
1266.082,-72.4,,
1266.097,-210.0,,
1266.112,-210.0,,
1266.127,-210.0,,
1266.142,-210.0,,
1266.157,-210.0,,
1266.172,-210.0,,
1266.187,-210.0,,
1266.202,-210.0,,
1266.217,-210.0,,
1266.232,-210.0,,
1266.247,-210.0,,
1266.262,-210.0,,
1266.277,-210.0,,
1266.292,-210.0,,
1266.307,-210.0,,
1266.322,-210.0,,
1266.337,-210.0,,
1266.352,-69.13,,
1266.367,-66.73,,
1266.382,-67.09,,
1266.397,-68.22,,
1266.412,-70.61,,
1266.427,-68.96,,
1266.442,-66.38,,
1266.457,-67.26,,
1266.472,-81.01,,
1266.487,-210.0,,
1266.502,-74.4,,
1266.517,-68.43,,
1266.532,-69.71,,
1266.547,-210.0,,
1266.562,-210.0,,
1266.577,-210.0,,
1266.592,-77.29,,
1266.607,-73.7,,
1266.622,-210.0,,
1266.637,-210.0,,
1266.652,-210.0,,
1266.667,-210.0,,
1266.682,-210.0,,
1266.697,-210.0,,
1266.712,-210.0,,
1266.727,-210.0,,
1266.742,-210.0,,
1266.757,-210.0,,
1266.772,-210.0,,
1266.787,-210.0,,
1266.802,-210.0,,
1266.817,-210.0,,
1266.832,-210.0,,
1266.847,-210.0,,
1266.862,-210.0,,
1266.877,-210.0,,
1266.892,-210.0,,
1266.907,-210.0,,
1266.922,-210.0,,
1266.937,-210.0,,
1266.952,-210.0,,
1266.967,-210.0,,
1266.982,-210.0,,
1266.997,-210.0,,
1267.012,-210.0,,
1267.027,-210.0,,
1267.042,-210.0,,
1267.057,-73.04,,
1267.072,-210.0,,
1267.087,-210.0,,
1267.102,-70.34,,
1267.117,-67.66,,
1267.132,-66.42,,
1267.147,-67.81,,
1267.162,-66.74,,
1267.177,-65.83,,
1267.192,-64.34,,
1267.207,-64.93,,
1267.222,-64.56,,
1267.237,-64.64,,
1267.252,-64.64,,
1267.267,-63.57,,
1267.282,-64.58,,
1267.297,-64.25,,
1267.312,-64.66,,
1267.327,-64.48,,
1267.342,-64.18,,
1267.357,-64.84,,
1267.372,-63.99,,
1267.387,-64.56,,
1267.402,-63.82,,
1267.417,-64.68,,
1267.432,-63.45,,
1267.447,-64.44,,
1267.462,-64.08,,
1267.477,-62.96,,
1267.492,-63.95,,
1267.507,-62.62,,
1267.522,-63.49,,
1267.537,-62.65,,
1267.552,-62.39,,
1267.567,-62.44,,
1267.582,-62.48,,
1267.597,-62.83,,
1267.612,-62.24,,
1267.627,-61.88,,
1267.642,-61.67,,
1267.657,-62.74,,
1267.672,-63.28,,
1267.687,-62.35,,
1267.702,-62.52,,
1267.717,-62.46,,
1267.732,-63.9,,
1267.747,-63.95,,
1267.762,-62.92,,
1267.777,-62.78,,
1267.792,-62.57,,
1267.807,-63.64,,
1267.822,-62.8,,
1267.837,-63.37,,
1267.852,-63.15,,
1267.867,-63.84,,
1267.882,-64.92,,
1267.897,-63.31,,
1267.912,-63.55,,
1267.927,-63.06,,
1267.942,-64.4,,
1267.957,-64.55,,
1267.972,-64.54,,
1267.987,-64.41,,
1268.002,-63.87,,
1268.017,-65.86,,
1268.032,-65.74,,
1268.047,-65.43,,
1268.062,-64.43,,
1268.077,-64.18,,
1268.092,-67.64,,
1268.107,-66.15,,
1268.122,-66.66,,
1268.137,-64.83,,
1268.152,-65.22,,
1268.167,-67.2,,
1268.182,-69.01,,
1268.197,-68.86,,
1268.212,-64.67,,
1268.227,-65.28,,
1268.242,-69.03,,
1268.257,-68.36,,
1268.272,-68.76,,
1268.287,-66.35,,
1268.302,-70.22,,
1268.317,-74.23,,
1268.332,-210.0,,
1268.347,-73.41,,
1268.362,-70.8,,
1268.377,-210.0,,
1268.392,-210.0,,
1268.407,-210.0,,
1268.422,-210.0,,
1268.437,-210.0,,
1268.452,-210.0,,
1268.467,-210.0,,
1268.482,-210.0,,
1268.497,-210.0,,
1268.512,-210.0,,
1268.527,-210.0,,
1268.542,-210.0,,
1268.557,-210.0,,
1268.572,-210.0,,
1268.587,-210.0,,
1268.602,-210.0,,
1268.617,-210.0,,
1268.632,-210.0,,
1268.647,-210.0,,
1268.662,-210.0,,
1268.677,-210.0,,
1268.692,-210.0,,
1268.707,-210.0,,
1268.722,-210.0,,
1268.737,-210.0,,
1268.752,-210.0,,
1268.767,-210.0,,
1268.782,-210.0,,
1268.797,-210.0,,
1268.812,-210.0,,
1268.827,-210.0,,
1268.842,-210.0,,
1268.857,-210.0,,
1268.872,-210.0,,
1268.887,-72.81,,
1268.902,-210.0,,
1268.917,-210.0,,
1268.932,-210.0,,
1268.947,-67.74,,
1268.962,-68.09,,
1268.977,-210.0,,
1268.992,-74.01,,
1269.007,-78.61,,
1269.022,-68.02,,
1269.037,-72.66,,
1269.052,-210.0,,
1269.067,-210.0,,
1269.082,-210.0,,
1269.097,-67.6,,
1269.112,-210.0,,
1269.127,-210.0,,
1269.142,-210.0,,
1269.157,-73.24,,
1269.172,-68.41,,
1269.188,-73.08,,
1269.202,-69.11,,
1269.217,-70.88,,
1269.232,-69.17,,
1269.247,-66.47,,
1269.262,-71.17,,
1269.277,-69.07,,
1269.292,-69.24,,
1269.307,-67.26,,
1269.323,-68.86,,
1269.338,-66.31,,
1269.352,-66.76,,
1269.367,-67.06,,
1269.382,-65.58,,
1269.397,-66.28,,
1269.412,-65.05,,
1269.427,-65.87,,
1269.443,-65.19,,
1269.458,-64.11,,
1269.473,-65.83,,
1269.487,-64.59,,
1269.502,-64.89,,
1269.517,-64.7,,
1269.532,-64.85,,
1269.547,-64.03,,
1269.563,-65.33,,
1269.578,-65.11,,
1269.593,-64.76,,
1269.608,-65.22,,
1269.623,-63.84,,
1269.637,-64.6,,
1269.652,-64.37,,
1269.667,-64.05,,
1269.682,-65.4,,
1269.698,-63.74,,
1269.713,-64.88,,
1269.728,-63.99,,
1269.743,-63.62,,
1269.758,-63.62,,
1269.772,-63.9,,
1269.787,-63.78,,
1269.802,-62.9,,
1269.818,-63.99,,
1269.833,-64.11,,
1269.848,-64.47,,
1269.863,-64.23,,
1269.878,-63.27,,
1269.893,-64.42,,
1269.908,-63.53,,
1269.922,-63.89,,
1269.938,-63.91,,
1269.953,-64.97,,
1269.968,-67.38,,
1269.983,-65.74,,
1269.998,-67.3,,
1270.013,-66.43,,
1270.028,-69.6,,
1270.043,-66.55,,
1270.058,-67.43,,
1270.073,-67.29,,
1270.088,-66.2,,
1270.103,-69.34,,
1270.118,-67.12,,
1270.133,-66.51,,
1270.148,-66.25,,
1270.163,-66.26,,
1270.178,-66.4,,
1270.193,-65.64,,
1270.208,-68.21,,
1270.223,-67.42,,
1270.238,-69.14,,
1270.253,-67.88,,
1270.268,-67.21,,
1270.283,-70.1,,
1270.298,-69.14,,
1270.313,-69.11,,
1270.328,-65.85,,
1270.343,-69.19,,
1270.358,-75.98,,
1270.373,-69.82,,
1270.388,-71.24,,
1270.403,-66.84,,
1270.418,-67.37,,
1270.433,-69.4,,
1270.448,-70.35,,
1270.463,-69.48,,
1270.478,-65.48,,
1270.493,-67.01,,
1270.508,-71.77,,
1270.523,-210.0,,
1270.538,-70.03,,
1270.553,-68.69,,
1270.568,-68.47,,
1270.583,-69.66,,
1270.598,-76.18,,
1270.613,-68.2,,
1270.628,-68.5,,
1270.643,-71.38,,
1270.658,-210.0,,
1270.673,-210.0,,
1270.688,-68.23,,
1270.703,-70.92,,
1270.718,-71.49,,
1270.733,-210.0,,
1270.748,-210.0,,
1270.763,-72.65,,
1270.778,-69.37,,
1270.793,-70.16,,
1270.808,-210.0,,
1270.823,-210.0,,
1270.838,-71.24,,
1270.853,-70.56,,
1270.868,-77.77,,
1270.883,-210.0,,
1270.898,-210.0,,
1270.913,-70.87,,
1270.928,-76.34,,
1270.943,-210.0,,
1270.958,-210.0,,
1270.973,-76.3,,
1270.988,-70.81,,
1271.003,-67.35,,
1271.018,-84.15,,
1271.033,-70.46,,
1271.048,-68.55,,
1271.063,-67.73,,
1271.078,-67.88,,
1271.093,-210.0,,
1271.108,-75.0,,
1271.123,-69.71,,
1271.138,-66.18,,
1271.153,-67.53,,
1271.168,-77.85,,
1271.183,-84.4,,
1271.198,-73.08,,
1271.213,-67.02,,
1271.228,-71.22,,
1271.243,-79.75,,
1271.258,-87.57,,
1271.273,-71.3,,
1271.288,-67.3,,
1271.303,-76.98,,
1271.318,-75.0,,
1271.333,-74.18,,
1271.348,-67.11,,
1271.363,-65.35,,
1271.378,-70.1,,
1271.393,-68.44,,
1271.408,-69.21,,
1271.423,-67.35,,
1271.438,-67.85,,
1271.453,-71.65,,
1271.468,-70.09,,
1271.483,-74.29,,
1271.498,-69.84,,
1271.513,-70.61,,
1271.528,-68.26,,
1271.543,-67.37,,
1271.558,-67.81,,
1271.573,-65.86,,
1271.588,-68.21,,
1271.603,-66.75,,
1271.618,-66.93,,
1271.633,-66.41,,
1271.648,-65.65,,
1271.663,-65.61,,
1271.678,-65.34,,
1271.693,-64.58,,
1271.708,-64.46,,
1271.723,-63.52,,
1271.738,-63.44,,
1271.753,-62.71,,
1271.768,-63.72,,
1271.783,-62.66,,
1271.798,-63.02,,
1271.813,-62.97,,
1271.828,-63.02,,
1271.843,-63.81,,
1271.858,-62.6,,
1271.873,-62.49,,
1271.888,-62.23,,
1271.903,-61.93,,
1271.918,-62.53,,
1271.933,-61.88,,
1271.948,-61.62,,
1271.963,-61.23,,
1271.978,-61.4,,
1271.993,-61.11,,
1272.008,-61.53,,
1272.023,-61.56,,
1272.038,-61.12,,
1272.053,-61.18,,
1272.068,-60.67,,
1272.083,-60.92,,
1272.098,-60.84,,
1272.113,-60.62,,
1272.128,-60.61,,
1272.143,-60.88,,
1272.158,-61.01,,
1272.173,-60.9,,
1272.188,-60.87,,
1272.203,-60.93,,
1272.218,-60.85,,
1272.233,-60.85,,
1272.248,-60.48,,
1272.263,-60.53,,
1272.278,-60.63,,
1272.293,-60.76,,
1272.308,-60.71,,
1272.323,-60.7,,
1272.338,-60.74,,
1272.353,-61.12,,
1272.368,-61.37,,
1272.383,-61.25,,
1272.398,-61.08,,
1272.413,-60.67,,
1272.428,-61.02,,
1272.443,-61.06,,
1272.458,-61.07,,
1272.473,-60.78,,
1272.488,-60.73,,
1272.503,-61.09,,
1272.518,-60.81,,
1272.533,-60.97,,
1272.548,-61.05,,
1272.563,-61.01,,
1272.578,-61.26,,
1272.593,-61.28,,
1272.608,-61.2,,
1272.623,-60.88,,
1272.638,-61.37,,
1272.653,-61.37,,
1272.668,-61.31,,
1272.683,-60.81,,
1272.698,-60.97,,
1272.713,-61.43,,
1272.728,-61.95,,
1272.743,-61.65,,
1272.758,-61.48,,
1272.773,-60.87,,
1272.788,-61.87,,
1272.803,-61.94,,
1272.818,-61.73,,
1272.833,-61.12,,
1272.848,-60.84,,
1272.863,-61.98,,
1272.878,-62.45,,
1272.893,-62.19,,
1272.908,-62.24,,
1272.923,-62.21,,
1272.938,-63.33,,
1272.953,-63.81,,
1272.968,-63.57,,
1272.983,-63.11,,
1272.998,-63.15,,
1273.013,-64.8,,
1273.028,-64.3,,
1273.043,-64.06,,
1273.058,-63.96,,
1273.073,-65.16,,
1273.088,-65.52,,
1273.103,-65.04,,
1273.118,-64.93,,
1273.133,-64.9,,
1273.148,-67.76,,
1273.163,-68.44,,
1273.178,-68.38,,
1273.193,-66.27,,
1273.208,-65.52,,
1273.223,-69.74,,
1273.238,-71.65,,
1273.253,-71.27,,
1273.268,-70.8,,
1273.283,-74.19,,
1273.298,-210.0,,
1273.313,-210.0,,
1273.328,-79.2,,
1273.343,-76.11,,
1273.358,-210.0,,
1273.373,-210.0,,
1273.388,-210.0,,
1273.403,-210.0,,
1273.418,-210.0,,
1273.433,-210.0,,
1273.448,-210.0,,
1273.463,-210.0,,
1273.478,-210.0,,
1273.493,-210.0,,
1273.508,-210.0,,
1273.523,-210.0,,
1273.538,-210.0,,
1273.553,-210.0,,
1273.568,-210.0,,
1273.583,-210.0,,
1273.598,-210.0,,
1273.613,-210.0,,
1273.628,-210.0,,
1273.643,-210.0,,
1273.658,-210.0,,
1273.673,-210.0,,
1273.688,-210.0,,
1273.703,-210.0,,
1273.718,-210.0,,
1273.733,-210.0,,
1273.748,-210.0,,
1273.763,-210.0,,
1273.778,-210.0,,
1273.793,-210.0,,
1273.808,-210.0,,
1273.823,-210.0,,
1273.838,-210.0,,
1273.853,-210.0,,
1273.868,-210.0,,
1273.883,-210.0,,
1273.898,-210.0,,
1273.913,-210.0,,
1273.928,-210.0,,
1273.943,-210.0,,
1273.958,-210.0,,
1273.973,-210.0,,
1273.988,-210.0,,
1274.003,-210.0,,
1274.018,-210.0,,
1274.033,-210.0,,
1274.048,-210.0,,
1274.063,-210.0,,
1274.078,-210.0,,
1274.093,-210.0,,
1274.108,-210.0,,
1274.123,-210.0,,
1274.138,-210.0,,
1274.153,-210.0,,
1274.168,-210.0,,
1274.183,-210.0,,
1274.198,-210.0,,
1274.213,-210.0,,
1274.228,-210.0,,
1274.243,-210.0,,
1274.258,-210.0,,
1274.273,-210.0,,
1274.288,-210.0,,
1274.303,-210.0,,
1274.318,-210.0,,
1274.333,-210.0,,
1274.348,-210.0,,
1274.363,-72.59,,
1274.378,-76.13,,
1274.393,-71.23,,
1274.408,-81.59,,
1274.423,-75.79,,
1274.438,-74.55,,
1274.453,-210.0,,
1274.468,-70.48,,
1274.483,-79.52,,
1274.498,-76.87,,
1274.513,-72.97,,
1274.528,-210.0,,
1274.543,-67.89,,
1274.558,-73.09,,
1274.573,-73.25,,
1274.588,-69.16,,
1274.603,-73.27,,
1274.618,-68.0,,
1274.633,-69.25,,
1274.648,-68.09,,
1274.663,-66.66,,
1274.678,-70.67,,
1274.693,-67.46,,
1274.708,-69.4,,
1274.723,-69.41,,
1274.738,-68.83,,
1274.753,-68.69,,
1274.768,-66.36,,
1274.783,-67.18,,
1274.798,-67.55,,
1274.813,-68.68,,
1274.828,-65.82,,
1274.843,-65.09,,
1274.858,-65.5,,
1274.873,-65.26,,
1274.888,-67.69,,
1274.903,-64.94,,
1274.918,-64.67,,
1274.933,-64.54,,
1274.948,-64.17,,
1274.963,-64.88,,
1274.978,-63.15,,
1274.993,-63.17,,
1275.008,-63.15,,
1275.023,-62.65,,
1275.038,-63.56,,
1275.053,-62.16,,
1275.068,-62.28,,
1275.083,-62.9,,
1275.098,-62.67,,
1275.113,-63.18,,
1275.128,-62.01,,
1275.143,-62.26,,
1275.158,-62.59,,
1275.173,-62.46,,
1275.188,-62.96,,
1275.203,-62.19,,
1275.218,-62.29,,
1275.233,-62.28,,
1275.248,-62.0,,
1275.263,-62.38,,
1275.278,-61.68,,
1275.293,-61.93,,
1275.308,-61.75,,
1275.323,-61.91,,
1275.338,-62.61,,
1275.353,-62.02,,
1275.368,-62.33,,
1275.383,-61.78,,
1275.398,-62.44,,
1275.413,-61.52,,
1275.428,-61.78,,
1275.443,-61.61,,
1275.458,-61.09,,
1275.473,-61.69,,
1275.488,-60.83,,
1275.503,-60.96,,
1275.518,-61.0,,
1275.533,-60.55,,
1275.548,-61.36,,
1275.563,-60.63,,
1275.578,-60.84,,
1275.593,-60.48,,
1275.608,-60.46,,
1275.623,-61.01,,
1275.638,-60.53,,
1275.653,-61.07,,
1275.668,-60.89,,
1275.683,-60.95,,
1275.698,-61.01,,
1275.713,-60.81,,
1275.728,-61.04,,
1275.743,-61.1,,
1275.758,-61.21,,
1275.773,-60.97,,
1275.788,-61.01,,
1275.803,-61.02,,
1275.818,-60.21,,
1275.833,-60.79,,
1275.848,-60.75,,
1275.863,-60.97,,
1275.878,-60.75,,
1275.893,-60.52,,
1275.908,-60.62,,
1275.923,-60.39,,
1275.938,-60.62,,
1275.953,-60.37,,
1275.968,-60.1,,
1275.983,-60.45,,
1275.998,-60.14,,
1276.013,-60.75,,
1276.028,-60.71,,
1276.043,-60.54,,
1276.058,-60.85,,
1276.073,-60.64,,
1276.088,-61.07,,
1276.103,-60.99,,
1276.118,-61.17,,
1276.133,-61.14,,
1276.148,-60.93,,
1276.163,-61.2,,
1276.178,-60.74,,
1276.193,-61.07,,
1276.208,-60.97,,
1276.223,-60.94,,
1276.238,-61.98,,
1276.253,-61.69,,
1276.268,-61.89,,
1276.283,-61.78,,
1276.298,-61.83,,
1276.313,-63.5,,
1276.328,-62.82,,
1276.343,-62.53,,
1276.358,-62.95,,
1276.373,-63.34,,
1276.388,-63.85,,
1276.403,-63.82,,
1276.418,-63.68,,
1276.433,-63.58,,
1276.448,-64.67,,
1276.463,-64.86,,
1276.478,-64.71,,
1276.493,-64.1,,
1276.508,-64.14,,
1276.523,-66.14,,
1276.538,-66.13,,
1276.553,-65.36,,
1276.568,-64.31,,
1276.583,-64.07,,
1276.598,-67.01,,
1276.613,-66.5,,
1276.628,-66.2,,
1276.643,-65.4,,
1276.658,-64.98,,
1276.673,-69.78,,
1276.688,-66.23,,
1276.703,-66.81,,
1276.718,-66.15,,
1276.733,-67.09,,
1276.748,-76.65,,
1276.763,-66.62,,
1276.778,-67.1,,
1276.793,-65.84,,
1276.808,-67.56,,
1276.823,-210.0,,
1276.838,-66.73,,
1276.853,-67.1,,
1276.868,-66.3,,
1276.883,-72.84,,
1276.898,-70.63,,
1276.913,-66.34,,
1276.928,-68.42,,
1276.943,-67.72,,
1276.958,-210.0,,
1276.973,-210.0,,
1276.988,-68.92,,
1277.003,-210.0,,
1277.018,-210.0,,
1277.033,-210.0,,
1277.048,-210.0,,
1277.063,-70.92,,
1277.078,-210.0,,
1277.093,-210.0,,
1277.108,-210.0,,
1277.123,-88.44,,
1277.138,-210.0,,
1277.153,-210.0,,
1277.168,-210.0,,
1277.183,-210.0,,
1277.198,-210.0,,
1277.214,-210.0,,
1277.228,-210.0,,
1277.243,-210.0,,
1277.258,-210.0,,
1277.273,-210.0,,
1277.288,-210.0,,
1277.303,-210.0,,
1277.318,-210.0,,
1277.333,-210.0,,
1277.349,-210.0,,
1277.364,-210.0,,
1277.378,-210.0,,
1277.393,-210.0,,
1277.408,-210.0,,
1277.423,-210.0,,
1277.438,-210.0,,
1277.453,-210.0,,
1277.469,-210.0,,
1277.484,-210.0,,
1277.499,-210.0,,
1277.514,-210.0,,
1277.528,-210.0,,
1277.543,-210.0,,
1277.558,-74.46,,
1277.573,-210.0,,
1277.589,-210.0,,
1277.604,-210.0,,
1277.619,-210.0,,
1277.634,-71.19,,
1277.649,-73.6,,
1277.663,-210.0,,
1277.678,-210.0,,
1277.693,-78.02,,
1277.708,-71.65,,
1277.724,-210.0,,
1277.739,-210.0,,
1277.754,-210.0,,
1277.769,-210.0,,
1277.784,-210.0,,
1277.799,-210.0,,
1277.813,-210.0,,
1277.828,-210.0,,
1277.844,-210.0,,
1277.859,-210.0,,
1277.874,-210.0,,
1277.889,-210.0,,
1277.904,-210.0,,
1277.919,-210.0,,
1277.934,-210.0,,
1277.948,-210.0,,
1277.964,-210.0,,
1277.979,-210.0,,
1277.994,-210.0,,
1278.009,-210.0,,
1278.024,-210.0,,
1278.039,-210.0,,
1278.054,-210.0,,
1278.069,-210.0,,
1278.084,-210.0,,
1278.099,-210.0,,
1278.114,-72.71,,
1278.129,-72.31,,
1278.144,-210.0,,
1278.159,-210.0,,
1278.174,-70.21,,
1278.189,-67.83,,
1278.204,-68.01,,
1278.219,-210.0,,
1278.234,-71.55,,
1278.249,-66.94,,
1278.264,-65.43,,
1278.279,-65.21,,
1278.294,-69.75,,
1278.309,-66.28,,
1278.324,-65.02,,
1278.339,-64.28,,
1278.354,-66.15,,
1278.369,-72.08,,
1278.384,-65.88,,
1278.399,-65.15,,
1278.414,-64.86,,
1278.429,-65.96,,
1278.444,-67.77,,
1278.459,-64.58,,
1278.474,-64.42,,
1278.489,-66.09,,
1278.504,-67.8,,
1278.519,-70.21,,
1278.534,-65.74,,
1278.549,-66.34,,
1278.564,-73.05,,
1278.579,-73.33,,
1278.594,-68.53,,
1278.609,-65.84,,
1278.624,-68.32,,
1278.639,-73.9,,
1278.654,-72.68,,
1278.669,-67.06,,
1278.684,-65.8,,
1278.699,-69.81,,
1278.714,-72.1,,
1278.729,-66.97,,
1278.744,-64.67,,
1278.759,-64.05,,
1278.774,-66.01,,
1278.789,-66.17,,
1278.804,-64.11,,
1278.819,-63.17,,
1278.834,-62.91,,
1278.849,-64.65,,
1278.864,-64.2,,
1278.879,-63.3,,
1278.894,-63.32,,
1278.909,-64.79,,
1278.924,-67.32,,
1278.939,-65.78,,
1278.954,-64.25,,
1278.969,-64.06,,
1278.984,-66.54,,
1278.999,-69.06,,
1279.014,-65.35,,
1279.029,-64.81,,
1279.044,-65.8,,
1279.059,-69.43,,
1279.074,-74.0,,
1279.089,-66.25,,
1279.104,-65.76,,
1279.119,-67.8,,
1279.134,-70.58,,
1279.149,-67.34,,
1279.164,-65.18,,
1279.179,-66.02,,
1279.194,-69.04,,
1279.209,-68.59,,
1279.224,-65.23,,
1279.239,-64.79,,
1279.254,-66.47,,
1279.269,-68.62,,
1279.284,-70.04,,
1279.299,-65.91,,
1279.314,-65.61,,
1279.329,-68.12,,
1279.344,-70.51,,
1279.359,-66.96,,
1279.374,-64.1,,
1279.389,-63.89,,
1279.404,-65.78,,
1279.419,-65.93,,
1279.434,-64.46,,
1279.449,-63.58,,
1279.464,-65.65,,
1279.479,-68.21,,
1279.494,-65.6,,
1279.509,-64.71,,
1279.524,-64.42,,
1279.539,-67.33,,
1279.554,-73.49,,
1279.569,-66.51,,
1279.584,-65.68,,
1279.599,-67.18,,
1279.614,-70.7,,
1279.629,-73.19,,
1279.644,-67.18,,
1279.659,-67.21,,
1279.674,-75.36,,
1279.689,-210.0,,
1279.704,-210.0,,
1279.719,-70.07,,
1279.734,-69.1,,
1279.749,-210.0,,
1279.764,-210.0,,
1279.779,-73.25,,
1279.794,-67.89,,
1279.809,-71.62,,
1279.824,-210.0,,
1279.839,-210.0,,
1279.854,-70.57,,
1279.869,-67.49,,
1279.884,-68.21,,
1279.899,-73.85,,
1279.914,-68.45,,
1279.929,-65.12,,
1279.944,-64.37,,
1279.959,-66.35,,
1279.974,-69.67,,
1279.989,-66.98,,
1280.004,-63.66,,
1280.019,-64.05,,
1280.034,-64.22,,
1280.049,-66.17,,
1280.064,-64.81,,
1280.079,-63.09,,
1280.094,-63.37,,
1280.109,-63.93,,
1280.124,-64.83,,
1280.139,-64.33,,
1280.154,-63.74,,
1280.169,-64.36,,
1280.184,-64.9,,
1280.199,-64.97,,
1280.214,-64.76,,
1280.229,-64.8,,
1280.244,-67.17,,
1280.259,-66.35,,
1280.274,-66.72,,
1280.289,-66.05,,
1280.304,-66.59,,
1280.319,-70.29,,
1280.334,-70.66,,
1280.349,-69.47,,
1280.364,-67.18,,
1280.379,-66.81,,
1280.394,-74.73,,
1280.409,-71.79,,
1280.424,-68.96,,
1280.439,-69.68,,
1280.454,-71.23,,
1280.469,-74.94,,
1280.484,-66.98,,
1280.499,-67.02,,
1280.514,-67.31,,
1280.529,-67.72,,
1280.544,-68.07,,
1280.559,-64.86,,
1280.574,-64.5,,
1280.589,-65.09,,
1280.604,-66.16,,
1280.619,-66.06,,
1280.634,-64.13,,
1280.649,-63.95,,
1280.664,-63.87,,
1280.679,-63.85,,
1280.694,-63.86,,
1280.709,-62.36,,
1280.724,-62.54,,
1280.739,-62.91,,
1280.754,-62.77,,
1280.769,-62.46,,
1280.784,-62.85,,
1280.799,-63.89,,
1280.814,-64.09,,
1280.829,-64.03,,
1280.844,-63.32,,
1280.859,-63.78,,
1280.874,-64.75,,
1280.889,-66.75,,
1280.904,-65.97,,
1280.919,-64.98,,
1280.934,-65.11,,
1280.949,-67.89,,
1280.964,-68.17,,
1280.979,-66.37,,
1280.994,-64.53,,
1281.009,-65.73,,
1281.024,-68.25,,
1281.039,-69.19,,
1281.054,-66.33,,
1281.069,-64.69,,
1281.084,-66.03,,
1281.099,-68.72,,
1281.114,-69.47,,
1281.129,-66.33,,
1281.144,-64.9,,
1281.159,-67.27,,
1281.174,-69.63,,
1281.189,-68.42,,
1281.204,-65.78,,
1281.219,-65.15,,
1281.234,-68.37,,
1281.249,-65.74,,
1281.264,-65.68,,
1281.279,-63.84,,
1281.294,-63.6,,
1281.309,-65.3,,
1281.324,-64.1,,
1281.339,-63.21,,
1281.354,-62.58,,
1281.369,-62.98,,
1281.384,-65.02,,
1281.399,-63.3,,
1281.414,-62.78,,
1281.429,-62.92,,
1281.444,-63.81,,
1281.459,-65.65,,
1281.474,-63.26,,
1281.489,-62.9,,
1281.504,-64.27,,
1281.519,-65.62,,
1281.534,-67.97,,
1281.549,-64.54,,
1281.564,-64.98,,
1281.579,-66.7,,
1281.594,-68.1,,
1281.609,-64.86,,
1281.624,-63.65,,
1281.639,-63.99,,
1281.654,-65.33,,
1281.669,-66.91,,
1281.684,-64.8,,
1281.699,-63.48,,
1281.714,-64.41,,
1281.729,-66.65,,
1281.744,-67.14,,
1281.759,-64.44,,
1281.774,-65.26,,
1281.789,-66.74,,
1281.804,-66.62,,
1281.819,-65.52,,
1281.834,-64.08,,
1281.849,-66.43,,
1281.864,-68.23,,
1281.879,-69.01,,
1281.894,-66.48,,
1281.909,-65.52,,
1281.924,-67.75,,
1281.939,-68.99,,
1281.954,-65.39,,
1281.969,-64.42,,
1281.984,-63.81,,
1281.999,-65.74,,
1282.014,-65.62,,
1282.029,-63.99,,
1282.044,-63.95,,
1282.059,-64.94,,
1282.074,-66.65,,
1282.089,-66.02,,
1282.104,-64.74,,
1282.119,-67.24,,
1282.134,-69.62,,
1282.149,-76.7,,
1282.164,-67.61,,
1282.179,-66.84,,
1282.194,-71.88,,
1282.209,-69.97,,
1282.224,-71.49,,
1282.239,-66.64,,
1282.254,-67.45,,
1282.269,-70.11,,
1282.284,-69.39,,
1282.299,-70.03,,
1282.314,-65.3,,
1282.329,-66.61,,
1282.344,-68.82,,
1282.359,-66.94,,
1282.374,-67.24,,
1282.389,-65.49,,
1282.404,-68.69,,
1282.419,-70.13,,
1282.434,-66.25,,
1282.449,-67.16,,
1282.464,-66.55,,
1282.479,-71.06,,
1282.494,-210.0,,
1282.509,-68.71,,
1282.524,-69.63,,
1282.539,-67.95,,
1282.554,-66.95,,
1282.569,-66.87,,
1282.584,-64.99,,
1282.599,-65.73,,
1282.614,-66.23,,
1282.629,-65.73,,
1282.644,-66.21,,
1282.659,-64.81,,
1282.674,-65.68,,
1282.689,-65.83,,
1282.704,-66.48,,
1282.719,-68.96,,
1282.734,-65.9,,
1282.749,-67.61,,
1282.764,-69.19,,
1282.779,-66.04,,
1282.794,-67.03,,
1282.809,-67.35,,
1282.824,-72.17,,
1282.839,-69.51,,
1282.854,-66.45,,
1282.869,-67.66,,
1282.884,-65.58,,
1282.899,-65.36,,
1282.914,-65.43,,
1282.929,-63.69,,
1282.944,-64.14,,
1282.959,-65.26,,
1282.974,-65.35,,
1282.989,-64.94,,
1283.004,-64.02,,
1283.019,-66.15,,
1283.034,-65.52,,
1283.049,-65.49,,
1283.064,-65.99,,
1283.079,-65.02,,
1283.094,-67.11,,
1283.109,-66.43,,
1283.124,-64.74,,
1283.139,-65.22,,
1283.154,-65.12,,
1283.169,-69.03,,
1283.184,-66.38,,
1283.199,-64.72,,
1283.214,-67.08,,
1283.229,-67.21,,
1283.244,-66.98,,
1283.259,-65.59,,
1283.274,-64.21,,
1283.289,-66.29,,
1283.304,-66.0,,
1283.319,-67.88,,
1283.334,-66.29,,
1283.349,-65.24,,
1283.364,-68.15,,
1283.379,-66.96,,
1283.394,-66.44,,
1283.409,-65.4,,
1283.424,-65.62,,
1283.439,-71.38,,
1283.454,-66.92,,
1283.469,-65.75,,
1283.484,-65.28,,
1283.499,-64.35,,
1283.514,-65.0,,
1283.529,-63.36,,
1283.544,-62.61,,
1283.559,-64.23,,
1283.574,-63.95,,
1283.589,-64.69,,
1283.604,-63.39,,
1283.619,-64.05,,
1283.634,-65.22,,
1283.649,-64.91,,
1283.664,-65.03,,
1283.679,-63.33,,
1283.694,-64.46,,
1283.709,-65.07,,
1283.724,-63.75,,
1283.739,-64.3,,
1283.754,-64.38,,
1283.769,-65.64,,
1283.784,-66.94,,
1283.799,-65.04,,
1283.814,-64.89,,
1283.829,-64.37,,
1283.844,-64.4,,
1283.859,-65.08,,
1283.874,-63.42,,
1283.889,-63.8,,
1283.904,-64.84,,
1283.919,-63.84,,
1283.934,-64.3,,
1283.949,-63.36,,
1283.964,-63.53,,
1283.979,-64.57,,
1283.994,-64.49,,
1284.009,-65.44,,
1284.024,-63.42,,
1284.039,-64.83,,
1284.054,-65.92,,
1284.069,-64.83,,
1284.084,-65.09,,
1284.099,-65.04,,
1284.114,-67.81,,
1284.129,-67.62,,
1284.144,-65.2,,
1284.159,-65.05,,
1284.174,-64.7,,
1284.189,-64.38,,
1284.204,-64.65,,
1284.219,-63.06,,
1284.234,-63.61,,
1284.249,-64.56,,
1284.264,-63.92,,
1284.279,-64.3,,
1284.294,-63.0,,
1284.309,-64.75,,
1284.324,-64.67,,
1284.339,-64.58,,
1284.354,-65.86,,
1284.369,-64.41,,
1284.384,-66.77,,
1284.399,-68.47,,
1284.414,-65.79,,
1284.429,-65.25,,
1284.444,-65.88,,
1284.459,-69.9,,
1284.474,-70.53,,
1284.489,-66.38,,
1284.504,-67.71,,
1284.519,-68.07,,
1284.534,-210.0,,
1284.549,-77.22,,
1284.564,-67.82,,
1284.579,-75.45,,
1284.594,-76.26,,
1284.609,-71.26,,
1284.624,-67.5,,
1284.639,-66.99,,
1284.654,-74.68,,
1284.669,-73.1,,
1284.684,-210.0,,
1284.699,-75.32,,
1284.714,-76.89,,
1284.729,-210.0,,
1284.744,-210.0,,
1284.759,-72.03,,
1284.774,-69.58,,
1284.789,-70.26,,
1284.804,-78.54,,
1284.819,-68.94,,
1284.834,-66.49,,
1284.849,-71.74,,
1284.864,-72.82,,
1284.879,-210.0,,
1284.894,-75.93,,
1284.909,-72.33,,
1284.924,-210.0,,
1284.939,-210.0,,
1284.954,-210.0,,
1284.969,-81.55,,
1284.984,-73.38,,
1284.999,-210.0,,
1285.014,-210.0,,
1285.029,-210.0,,
1285.044,-210.0,,
1285.059,-210.0,,
1285.074,-210.0,,
1285.089,-210.0,,
1285.104,-210.0,,
1285.119,-210.0,,
1285.134,-210.0,,
1285.149,-210.0,,
1285.164,-75.59,,
1285.179,-69.21,,
1285.194,-210.0,,
1285.209,-210.0,,
1285.224,-210.0,,
1285.24,-73.11,,
1285.255,-69.05,,
1285.269,-210.0,,
1285.284,-210.0,,
1285.299,-210.0,,
1285.314,-73.22,,
1285.329,-210.0,,
1285.344,-210.0,,
1285.359,-210.0,,
1285.375,-79.82,,
1285.39,-71.85,,
1285.404,-71.05,,
1285.419,-210.0,,
1285.434,-210.0,,
1285.449,-69.3,,
1285.464,-68.18,,
1285.479,-68.78,,
1285.495,-71.07,,
1285.51,-66.68,,
1285.525,-67.73,,
1285.54,-67.95,,
1285.554,-67.61,,
1285.569,-70.27,,
1285.584,-65.96,,
1285.599,-65.54,,
1285.615,-69.49,,
1285.63,-70.0,,
1285.645,-70.16,,
1285.66,-65.7,,
1285.675,-66.61,,
1285.689,-71.41,,
1285.704,-67.25,,
1285.719,-66.39,,
1285.734,-65.81,,
1285.75,-67.48,,
1285.765,-71.01,,
1285.78,-67.99,,
1285.795,-67.81,,
1285.81,-68.46,,
1285.825,-210.0,,
1285.839,-210.0,,
1285.854,-68.75,,
1285.87,-69.59,,
1285.885,-71.09,,
1285.9,-70.96,,
1285.915,-69.87,,
1285.93,-65.41,,
1285.945,-66.04,,
1285.96,-68.94,,
1285.974,-69.26,,
1285.99,-70.56,,
1286.005,-66.43,,
1286.02,-70.25,,
1286.035,-72.55,,
1286.05,-66.77,,
1286.065,-66.25,,
1286.08,-66.37,,
1286.095,-69.61,,
1286.11,-69.97,,
1286.125,-64.96,,
1286.14,-66.13,,
1286.155,-66.08,,
1286.17,-72.25,,
1286.185,-70.51,,
1286.2,-67.09,,
1286.215,-71.62,,
1286.23,-69.57,,
1286.245,-69.35,,
1286.26,-68.1,,
1286.275,-65.73,,
1286.29,-67.93,,
1286.305,-68.53,,
1286.32,-68.75,,
1286.335,-67.41,,
1286.35,-65.06,,
1286.365,-67.36,,
1286.38,-71.07,,
1286.395,-67.18,,
1286.41,-66.24,,
1286.425,-66.39,,
1286.44,-71.8,,
1286.455,-210.0,,
1286.47,-69.71,,
1286.485,-68.13,,
1286.5,-72.9,,
1286.515,-210.0,,
1286.53,-210.0,,
1286.545,-69.92,,
1286.56,-80.43,,
1286.575,-210.0,,
1286.59,-210.0,,
1286.605,-210.0,,
1286.62,-70.25,,
1286.635,-210.0,,
1286.65,-210.0,,
1286.665,-210.0,,
1286.68,-210.0,,
1286.695,-210.0,,
1286.71,-210.0,,
1286.725,-210.0,,
1286.74,-210.0,,
1286.755,-210.0,,
1286.77,-210.0,,
1286.785,-210.0,,
1286.8,-210.0,,
1286.815,-210.0,,
1286.83,-81.24,,
1286.845,-210.0,,
1286.86,-210.0,,
1286.875,-210.0,,
1286.89,-68.93,,
1286.905,-73.88,,
1286.92,-210.0,,
1286.935,-210.0,,
1286.95,-210.0,,
1286.965,-210.0,,
1286.98,-210.0,,
1286.995,-210.0,,
1287.01,-210.0,,
1287.025,-210.0,,
1287.04,-210.0,,
1287.055,-210.0,,
1287.07,-210.0,,
1287.085,-75.57,,
1287.1,-72.66,,
1287.115,-74.74,,
1287.13,-80.14,,
1287.145,-75.77,,
1287.16,-81.9,,
1287.175,-72.31,,
1287.19,-210.0,,
1287.205,-72.22,,
1287.22,-68.8,,
1287.235,-74.11,,
1287.25,-75.83,,
1287.265,-210.0,,
1287.28,-210.0,,
1287.295,-210.0,,
1287.31,-210.0,,
1287.325,-210.0,,
1287.34,-80.59,,
1287.355,-210.0,,
1287.37,-210.0,,
1287.385,-210.0,,
1287.4,-210.0,,
1287.415,-210.0,,
1287.43,-210.0,,
1287.445,-210.0,,
1287.46,-210.0,,
1287.475,-81.72,,
1287.49,-210.0,,
1287.505,-76.85,,
1287.52,-67.82,,
1287.535,-68.45,,
1287.55,-68.32,,
1287.565,-69.53,,
1287.58,-68.91,,
1287.595,-67.2,,
1287.61,-67.66,,
1287.625,-210.0,,
1287.64,-71.9,,
1287.655,-70.33,,
1287.67,-69.82,,
1287.685,-75.75,,
1287.7,-77.25,,
1287.715,-67.37,,
1287.73,-66.31,,
1287.745,-66.29,,
1287.76,-66.38,,
1287.775,-66.61,,
1287.79,-65.85,,
1287.805,-65.35,,
1287.82,-67.27,,
1287.835,-65.09,,
1287.85,-65.78,,
1287.865,-66.46,,
1287.88,-66.21,,
1287.895,-71.22,,
1287.91,-70.26,,
1287.925,-70.56,,
1287.94,-68.37,,
1287.955,-69.47,,
1287.97,-68.54,,
1287.985,-68.77,,
1288.0,-66.68,,
1288.015,-69.88,,
1288.03,-69.06,,
1288.045,-68.78,,
1288.06,-70.07,,
1288.075,-67.76,,
1288.09,-72.39,,
1288.105,-73.15,,
1288.12,-73.67,,
1288.135,-83.71,,
1288.15,-73.37,,
1288.165,-210.0,,
1288.18,-77.9,,
1288.195,-67.25,,
1288.21,-68.14,,
1288.225,-69.67,,
1288.24,-69.16,,
1288.255,-69.41,,
1288.27,-66.67,,
1288.285,-69.65,,
1288.3,-68.42,,
1288.315,-68.28,,
1288.33,-68.47,,
1288.345,-69.74,,
1288.36,-68.39,,
1288.375,-68.96,,
1288.39,-64.72,,
1288.405,-65.68,,
1288.42,-66.56,,
1288.435,-66.19,,
1288.45,-66.39,,
1288.465,-64.73,,
1288.48,-65.55,,
1288.495,-66.28,,
1288.51,-66.84,,
1288.525,-66.49,,
1288.54,-64.97,,
1288.555,-67.43,,
1288.57,-67.94,,
1288.585,-68.13,,
1288.6,-68.64,,
1288.615,-68.6,,
1288.63,-66.58,,
1288.645,-68.63,,
1288.66,-65.69,,
1288.675,-65.57,,
1288.69,-66.55,,
1288.705,-65.97,,
1288.72,-66.83,,
1288.735,-65.73,,
1288.75,-66.97,,
1288.765,-71.6,,
1288.78,-72.32,,
1288.795,-69.75,,
1288.81,-69.85,,
1288.825,-72.4,,
1288.84,-210.0,,
1288.855,-71.07,,
1288.87,-69.24,,
1288.885,-70.95,,
1288.9,-73.0,,
1288.915,-72.66,,
1288.93,-66.51,,
1288.945,-68.97,,
1288.96,-68.38,,
1288.975,-67.78,,
1288.99,-66.23,,
1289.005,-66.76,,
1289.02,-67.01,,
1289.035,-73.39,,
1289.05,-66.31,,
1289.065,-66.17,,
1289.08,-66.82,,
1289.095,-67.46,,
1289.11,-68.86,,
1289.125,-65.37,,
1289.14,-64.7,,
1289.155,-65.15,,
1289.17,-64.93,,
1289.185,-64.89,,
1289.2,-65.07,,
1289.215,-65.57,,
1289.23,-66.08,,
1289.245,-64.5,,
1289.26,-65.19,,
1289.275,-65.5,,
1289.29,-65.27,,
1289.305,-68.66,,
1289.32,-66.16,,
1289.335,-66.85,,
1289.35,-66.92,,
1289.365,-66.28,,
1289.38,-66.44,,
1289.395,-66.73,,
1289.41,-66.13,,
1289.425,-68.61,,
1289.44,-67.24,,
1289.455,-69.42,,
1289.47,-69.49,,
1289.485,-69.24,,
1289.5,-75.33,,
1289.515,-74.04,,
1289.53,-210.0,,
1289.545,-210.0,,
1289.56,-71.79,,
1289.575,-74.96,,
1289.59,-69.7,,
1289.605,-67.5,,
1289.62,-69.25,,
1289.635,-67.69,,
1289.65,-66.91,,
1289.665,-68.39,,
1289.68,-68.2,,
1289.695,-69.92,,
1289.71,-67.11,,
1289.725,-68.35,,
1289.74,-68.6,,
1289.755,-68.09,,
1289.77,-67.72,,
1289.785,-65.37,,
1289.8,-64.48,,
1289.815,-65.2,,
1289.83,-64.33,,
1289.845,-64.22,,
1289.86,-65.1,,
1289.875,-64.37,,
1289.89,-65.14,,
1289.905,-63.64,,
1289.92,-64.09,,
1289.935,-64.42,,
1289.95,-63.59,,
1289.965,-64.87,,
1289.98,-64.65,,
1289.995,-66.29,,
1290.01,-66.89,,
1290.025,-65.5,,
1290.04,-64.12,,
1290.055,-66.02,,
1290.07,-65.15,,
1290.085,-65.55,,
1290.1,-64.84,,
1290.115,-63.78,,
1290.13,-65.13,,
1290.145,-64.96,,
1290.16,-65.65,,
1290.175,-67.33,,
1290.19,-66.36,,
1290.205,-66.18,,
1290.22,-65.94,,
1290.235,-65.72,,
1290.25,-68.13,,
1290.265,-65.71,,
1290.28,-66.7,,
1290.295,-66.19,,
1290.31,-64.25,,
1290.325,-65.41,,
1290.34,-64.17,,
1290.355,-63.78,,
1290.37,-64.09,,
1290.385,-63.1,,
1290.4,-64.59,,
1290.415,-65.08,,
1290.43,-63.99,,
1290.445,-65.82,,
1290.46,-63.79,,
1290.475,-64.84,,
1290.49,-64.6,,
1290.505,-64.28,,
1290.52,-64.43,,
1290.535,-62.84,,
1290.55,-62.48,,
1290.565,-62.88,,
1290.58,-63.12,,
1290.595,-63.27,,
1290.61,-63.22,,
1290.625,-63.06,,
1290.64,-64.85,,
1290.655,-64.88,,
1290.67,-65.47,,
1290.685,-65.73,,
1290.7,-65.3,,
1290.715,-68.11,,
1290.73,-65.55,,
1290.745,-64.63,,
1290.76,-66.07,,
1290.775,-65.27,,
1290.79,-65.68,,
1290.805,-65.67,,
1290.82,-64.76,,
1290.835,-66.58,,
1290.85,-67.06,,
1290.865,-64.23,,
1290.88,-64.66,,
1290.895,-63.89,,
1290.91,-65.69,,
1290.925,-65.26,,
1290.94,-64.12,,
1290.955,-64.91,,
1290.97,-66.59,,
1290.985,-66.45,,
1291.0,-64.22,,
1291.015,-63.74,,
1291.03,-65.45,,
1291.045,-68.71,,
1291.06,-65.48,,
1291.075,-65.07,,
1291.09,-64.66,,
1291.105,-66.99,,
1291.12,-67.84,,
1291.135,-64.7,,
1291.15,-64.74,,
1291.165,-66.78,,
1291.18,-66.42,,
1291.195,-65.53,,
1291.21,-64.41,,
1291.225,-65.23,,
1291.24,-67.71,,
1291.255,-65.35,,
1291.27,-64.62,,
1291.285,-64.89,,
1291.3,-65.76,,
1291.315,-70.25,,
1291.33,-65.45,,
1291.345,-64.82,,
1291.36,-66.91,,
1291.375,-71.02,,
1291.39,-68.86,,
1291.405,-65.56,,
1291.42,-65.2,,
1291.435,-68.94,,
1291.45,-67.01,,
1291.465,-65.26,,
1291.48,-64.4,,
1291.495,-64.21,,
1291.51,-67.76,,
1291.525,-65.47,,
1291.54,-64.36,,
1291.555,-65.49,,
1291.57,-70.32,,
1291.585,-67.46,,
1291.6,-65.21,,
1291.615,-65.27,,
1291.63,-67.89,,
1291.645,-66.81,,
1291.66,-65.16,,
1291.675,-63.48,,
1291.69,-65.35,,
1291.705,-67.76,,
1291.72,-66.17,,
1291.735,-64.64,,
1291.75,-66.3,,
1291.765,-70.16,,
1291.78,-70.72,,
1291.795,-65.65,,
1291.81,-64.24,,
1291.825,-66.38,,
1291.84,-68.07,,
1291.855,-65.21,,
1291.87,-65.39,,
1291.885,-68.01,,
1291.9,-72.57,,
1291.915,-72.77,,
1291.93,-65.86,,
1291.945,-66.36,,
1291.96,-71.41,,
1291.975,-67.55,,
1291.99,-65.42,,
1292.005,-66.53,,
1292.02,-67.32,,
1292.035,-70.22,,
1292.05,-65.01,,
1292.065,-64.53,,
1292.08,-66.32,,
1292.095,-69.35,,
1292.11,-65.46,,
1292.125,-63.93,,
1292.14,-64.24,,
1292.155,-67.08,,
1292.17,-65.2,,
1292.185,-63.86,,
1292.2,-63.5,,
1292.215,-65.66,,
1292.23,-67.35,,
1292.245,-65.11,,
1292.26,-64.17,,
1292.275,-67.12,,
1292.29,-67.18,,
1292.305,-66.47,,
1292.32,-64.11,,
1292.335,-64.09,,
1292.35,-66.19,,
1292.365,-66.67,,
1292.38,-63.91,,
1292.395,-64.17,,
1292.41,-66.17,,
1292.425,-66.39,,
1292.44,-66.0,,
1292.455,-63.59,,
1292.47,-65.11,,
1292.485,-66.18,,
1292.5,-66.26,,
1292.515,-63.34,,
1292.53,-63.78,,
1292.545,-65.4,,
1292.56,-67.13,,
1292.575,-64.34,,
1292.59,-63.97,,
1292.605,-65.25,,
1292.62,-67.7,,
1292.635,-65.05,,
1292.65,-63.84,,
1292.665,-63.27,,
1292.68,-65.45,,
1292.695,-64.35,,
1292.71,-62.73,,
1292.725,-61.95,,
1292.74,-61.96,,
1292.755,-62.78,,
1292.77,-61.31,,
1292.785,-61.02,,
1292.8,-61.72,,
1292.815,-63.17,,
1292.83,-62.67,,
1292.845,-61.83,,
1292.86,-61.59,,
1292.875,-62.99,,
1292.89,-62.58,,
1292.905,-61.94,,
1292.92,-61.4,,
1292.935,-62.98,,
1292.95,-64.44,,
1292.965,-63.31,,
1292.98,-62.66,,
1292.995,-63.65,,
1293.01,-64.29,,
1293.025,-63.67,,
1293.04,-62.51,,
1293.055,-62.34,,
1293.07,-63.5,,
1293.085,-63.54,,
1293.1,-62.11,,
1293.115,-62.4,,
1293.13,-64.46,,
1293.145,-65.45,,
1293.16,-64.13,,
1293.175,-63.47,,
1293.19,-64.66,,
1293.205,-66.41,,
1293.22,-64.49,,
1293.235,-63.28,,
1293.25,-63.78,,
1293.266,-65.34,,
1293.281,-65.42,,
1293.295,-63.79,,
1293.31,-63.48,,
1293.325,-64.88,,
1293.34,-67.45,,
1293.355,-64.8,,
1293.37,-63.59,,
1293.385,-64.17,,
1293.401,-65.99,,
1293.416,-64.54,,
1293.43,-64.25,,
1293.445,-63.35,,
1293.46,-65.74,,
1293.475,-67.9,,
1293.49,-64.89,,
1293.505,-64.54,,
1293.521,-66.6,,
1293.536,-67.57,,
1293.551,-65.72,,
1293.566,-63.7,,
1293.58,-63.77,,
1293.595,-65.26,,
1293.61,-65.99,,
1293.625,-63.74,,
1293.641,-63.82,,
1293.656,-65.74,,
1293.671,-66.4,,
1293.686,-65.08,,
1293.701,-63.91,,
1293.715,-64.18,,
1293.73,-66.15,,
1293.745,-66.85,,
1293.76,-65.0,,
1293.776,-66.4,,
1293.791,-69.11,,
1293.806,-73.74,,
1293.821,-66.66,,
1293.836,-66.44,,
1293.851,-69.17,,
1293.865,-210.0,,
1293.88,-68.43,,
1293.896,-65.91,,
1293.911,-66.55,,
1293.926,-71.85,,
1293.941,-68.24,,
1293.956,-65.11,,
1293.971,-65.19,,
1293.986,-68.81,,
1294.001,-70.96,,
1294.016,-65.47,,
1294.031,-65.33,,
1294.046,-67.8,,
1294.061,-70.43,,
1294.076,-68.23,,
1294.091,-65.07,,
1294.106,-65.83,,
1294.121,-71.96,,
1294.136,-68.48,,
1294.151,-66.55,,
1294.166,-65.94,,
1294.181,-72.61,,
1294.196,-210.0,,
1294.211,-70.09,,
1294.226,-68.29,,
1294.241,-70.79,,
1294.256,-74.17,,
1294.271,-70.11,,
1294.286,-65.96,,
1294.301,-66.19,,
1294.316,-69.64,,
1294.331,-71.38,,
1294.346,-65.94,,
1294.361,-66.5,,
1294.376,-71.31,,
1294.391,-73.98,,
1294.406,-70.64,,
1294.421,-67.97,,
1294.436,-68.63,,
1294.451,-93.26,,
1294.466,-70.65,,
1294.481,-65.66,,
1294.496,-68.09,,
1294.511,-71.43,,
1294.526,-210.0,,
1294.541,-69.67,,
1294.556,-69.66,,
1294.571,-210.0,,
1294.586,-210.0,,
1294.601,-76.96,,
1294.616,-68.68,,
1294.631,-68.54,,
1294.646,-210.0,,
1294.661,-75.11,,
1294.676,-72.66,,
1294.691,-90.62,,
1294.706,-210.0,,
1294.721,-210.0,,
1294.736,-210.0,,
1294.751,-210.0,,
1294.766,-210.0,,
1294.781,-210.0,,
1294.796,-210.0,,
1294.811,-75.05,,
1294.826,-77.94,,
1294.841,-210.0,,
1294.856,-210.0,,
1294.871,-73.37,,
1294.886,-210.0,,
1294.901,-210.0,,
1294.916,-210.0,,
1294.931,-210.0,,
1294.946,-71.79,,
1294.961,-210.0,,
1294.976,-210.0,,
1294.991,-71.81,,
1295.006,-67.5,,
1295.021,-76.85,,
1295.036,-210.0,,
1295.051,-210.0,,
1295.066,-72.83,,
1295.081,-79.26,,
1295.096,-210.0,,
1295.111,-210.0,,
1295.126,-210.0,,
1295.141,-70.06,,
1295.156,-210.0,,
1295.171,-210.0,,
1295.186,-73.66,,
1295.201,-68.75,,
1295.216,-73.95,,
1295.231,-84.0,,
1295.246,-210.0,,
1295.261,-68.56,,
1295.276,-70.98,,
1295.291,-210.0,,
1295.306,-210.0,,
1295.321,-74.66,,
1295.336,-67.76,,
1295.351,-70.44,,
1295.366,-210.0,,
1295.381,-70.23,,
1295.396,-69.19,,
1295.411,-73.89,,
1295.426,-79.29,,
1295.441,-210.0,,
1295.456,-80.54,,
1295.471,-75.07,,
1295.486,-210.0,,
1295.501,-210.0,,
1295.516,-81.62,,
1295.531,-68.66,,
1295.546,-210.0,,
1295.561,-210.0,,
1295.576,-77.95,,
1295.591,-68.63,,
1295.606,-210.0,,
1295.621,-210.0,,
1295.636,-210.0,,
1295.651,-78.16,,
1295.666,-69.86,,
1295.681,-210.0,,
1295.696,-77.55,,
1295.711,-69.19,,
1295.726,-66.07,,
1295.741,-70.77,,
1295.756,-71.4,,
1295.771,-67.63,,
1295.786,-65.55,,
1295.801,-68.51,,
1295.816,-75.36,,
1295.831,-73.46,,
1295.846,-68.22,,
1295.861,-71.68,,
1295.876,-81.16,,
1295.891,-70.0,,
1295.906,-66.77,,
1295.921,-66.89,,
1295.936,-73.93,,
1295.951,-210.0,,
1295.966,-71.87,,
1295.981,-74.91,,
1295.996,-210.0,,
1296.011,-210.0,,
1296.026,-210.0,,
1296.041,-71.74,,
1296.056,-80.18,,
1296.071,-210.0,,
1296.086,-210.0,,
1296.101,-71.83,,
1296.116,-210.0,,
1296.131,-210.0,,
1296.146,-210.0,,
1296.161,-210.0,,
1296.176,-210.0,,
1296.191,-210.0,,
1296.206,-210.0,,
1296.221,-210.0,,
1296.236,-210.0,,
1296.251,-76.22,,
1296.266,-210.0,,
1296.281,-210.0,,
1296.296,-75.25,,
1296.311,-210.0,,
1296.326,-210.0,,
1296.341,-210.0,,
1296.356,-210.0,,
1296.371,-210.0,,
1296.386,-210.0,,
1296.401,-210.0,,
1296.416,-210.0,,
1296.431,-210.0,,
1296.446,-210.0,,
1296.461,-210.0,,
1296.476,-210.0,,
1296.491,-69.04,,
1296.506,-68.64,,
1296.521,-210.0,,
1296.536,-79.2,,
1296.551,-70.29,,
1296.566,-69.4,,
1296.581,-71.1,,
1296.596,-210.0,,
1296.611,-71.99,,
1296.626,-68.36,,
1296.641,-210.0,,
1296.656,-81.96,,
1296.671,-77.73,,
1296.686,-78.11,,
1296.701,-210.0,,
1296.716,-210.0,,
1296.731,-210.0,,
1296.746,-210.0,,
1296.761,-210.0,,
1296.776,-210.0,,
1296.791,-210.0,,
1296.806,-210.0,,
1296.821,-210.0,,
1296.836,-210.0,,
1296.851,-210.0,,
1296.866,-210.0,,
1296.881,-210.0,,
1296.896,-210.0,,
1296.911,-210.0,,
1296.926,-210.0,,
1296.941,-210.0,,
1296.956,-210.0,,
1296.971,-210.0,,
1296.986,-210.0,,
1297.001,-210.0,,
1297.016,-210.0,,
1297.031,-210.0,,
1297.046,-210.0,,
1297.061,-210.0,,
1297.076,-82.03,,
1297.091,-210.0,,
1297.106,-210.0,,
1297.121,-210.0,,
1297.136,-210.0,,
1297.151,-210.0,,
1297.166,-210.0,,
1297.181,-210.0,,
1297.196,-69.31,,
1297.211,-75.96,,
1297.226,-210.0,,
1297.241,-210.0,,
1297.256,-210.0,,
1297.271,-210.0,,
1297.286,-210.0,,
1297.301,-210.0,,
1297.316,-210.0,,
1297.331,-76.84,,
1297.346,-210.0,,
1297.361,-210.0,,
1297.376,-210.0,,
1297.391,-210.0,,
1297.406,-210.0,,
1297.421,-210.0,,
1297.436,-210.0,,
1297.451,-81.8,,
1297.466,-210.0,,
1297.481,-210.0,,
1297.496,-210.0,,
1297.511,-210.0,,
1297.526,-210.0,,
1297.541,-210.0,,
1297.556,-210.0,,
1297.571,-210.0,,
1297.586,-210.0,,
1297.601,-210.0,,
1297.616,-210.0,,
1297.631,-210.0,,
1297.646,-210.0,,
1297.661,-210.0,,
1297.676,-210.0,,
1297.691,-210.0,,
1297.706,-210.0,,
1297.721,-210.0,,
1297.736,-210.0,,
1297.751,-210.0,,
1297.766,-76.43,,
1297.781,-70.42,,
1297.796,-210.0,,
1297.811,-210.0,,
1297.826,-72.57,,
1297.841,-68.3,,
1297.856,-73.97,,
1297.871,-210.0,,
1297.886,-210.0,,
1297.901,-68.91,,
1297.916,-210.0,,
1297.931,-210.0,,
1297.946,-210.0,,
1297.961,-210.0,,
1297.976,-210.0,,
1297.991,-210.0,,
1298.006,-210.0,,
1298.021,-210.0,,
1298.036,-210.0,,
1298.051,-210.0,,
1298.066,-210.0,,
1298.081,-210.0,,
1298.096,-72.58,,
1298.111,-75.69,,
1298.126,-210.0,,
1298.141,-210.0,,
1298.156,-74.66,,
1298.171,-210.0,,
1298.186,-210.0,,
1298.201,-210.0,,
1298.216,-210.0,,
1298.231,-79.37,,
1298.246,-210.0,,
1298.261,-210.0,,
1298.276,-210.0,,
1298.291,-210.0,,
1298.306,-210.0,,
1298.321,-210.0,,
1298.336,-210.0,,
1298.351,-69.41,,
1298.366,-72.42,,
1298.381,-210.0,,
1298.396,-74.5,,
1298.411,-72.24,,
1298.426,-70.5,,
1298.441,-80.82,,
1298.456,-210.0,,
1298.471,-71.44,,
1298.486,-69.86,,
1298.501,-210.0,,
1298.516,-210.0,,
1298.531,-210.0,,
1298.546,-72.9,,
1298.561,-72.03,,
1298.576,-210.0,,
1298.591,-210.0,,
1298.606,-70.88,,
1298.621,-210.0,,
1298.636,-210.0,,
1298.651,-210.0,,
1298.666,-210.0,,
1298.681,-73.94,,
1298.696,-210.0,,
1298.711,-210.0,,
1298.726,-72.59,,
1298.741,-77.19,,
1298.756,-210.0,,
1298.771,-210.0,,
1298.786,-210.0,,
1298.801,-68.76,,
1298.816,-73.88,,
1298.831,-210.0,,
1298.846,-210.0,,
1298.861,-71.4,,
1298.876,-72.74,,
1298.891,-77.77,,
1298.906,-210.0,,
1298.921,-71.71,,
1298.936,-67.48,,
1298.951,-210.0,,
1298.966,-210.0,,
1298.981,-70.89,,
1298.996,-68.65,,
1299.011,-69.07,,
1299.026,-78.62,,
1299.041,-210.0,,
1299.056,-67.1,,
1299.071,-68.11,,
1299.086,-210.0,,
1299.101,-210.0,,
1299.116,-210.0,,
1299.131,-210.0,,
1299.146,-210.0,,
1299.161,-210.0,,
1299.176,-210.0,,
1299.191,-73.57,,
1299.206,-210.0,,
1299.221,-210.0,,
1299.236,-210.0,,
1299.251,-210.0,,
1299.266,-210.0,,
1299.281,-210.0,,
1299.296,-210.0,,
1299.311,-78.23,,
1299.326,-210.0,,
1299.341,-210.0,,
1299.356,-210.0,,
1299.371,-210.0,,
1299.386,-74.89,,
1299.401,-210.0,,
1299.416,-210.0,,
1299.431,-210.0,,
1299.446,-210.0,,
1299.461,-210.0,,
1299.476,-210.0,,
1299.491,-210.0,,
1299.506,-69.2,,
1299.521,-80.38,,
1299.536,-210.0,,
1299.551,-74.56,,
1299.566,-210.0,,
1299.581,-210.0,,
1299.596,-77.14,,
1299.611,-88.18,,
1299.626,-67.92,,
1299.641,-67.93,,
1299.656,-87.04,,
1299.671,-71.51,,
1299.686,-69.09,,
1299.701,-71.02,,
1299.716,-68.76,,
1299.731,-70.88,,
1299.746,-68.98,,
1299.761,-66.73,,
1299.776,-71.59,,
1299.791,-69.29,,
1299.806,-70.6,,
1299.821,-70.91,,
1299.836,-70.1,,
1299.851,-70.22,,
1299.866,-71.81,,
1299.881,-66.65,,
1299.896,-68.07,,
1299.911,-67.22,,
1299.926,-66.83,,
1299.941,-69.49,,
1299.956,-69.25,,
1299.971,-66.47,,
1299.986,-66.58,,
1300.001,-69.49,,
1300.016,-67.07,,
1300.031,-66.85,,
1300.046,-65.34,,
1300.061,-65.55,,
1300.076,-67.03,,
1300.091,-65.63,,
1300.106,-65.38,,
1300.121,-66.53,,
1300.136,-66.26,,
1300.151,-65.93,,
1300.166,-65.56,,
1300.181,-66.26,,
1300.196,-68.15,,
1300.211,-67.18,,
1300.226,-67.12,,
1300.241,-68.74,,
1300.256,-69.12,,
1300.271,-68.11,,
1300.286,-66.36,,
1300.301,-66.14,,
1300.316,-66.77,,
1300.331,-66.2,,
1300.346,-66.45,,
1300.361,-66.49,,
1300.376,-67.0,,
1300.391,-77.87,,
1300.406,-72.2,,
1300.421,-70.26,,
1300.436,-70.78,,
1300.451,-71.27,,
1300.466,-76.71,,
1300.481,-73.19,,
1300.496,-72.04,,
1300.511,-210.0,,
1300.526,-210.0,,
1300.541,-210.0,,
1300.556,-210.0,,
1300.571,-210.0,,
1300.586,-210.0,,
1300.601,-210.0,,
1300.616,-210.0,,
1300.631,-210.0,,
1300.646,-210.0,,
1300.661,-210.0,,
1300.676,-210.0,,
1300.691,-210.0,,
1300.706,-210.0,,
1300.721,-210.0,,
1300.736,-210.0,,
1300.751,-210.0,,
1300.766,-210.0,,
1300.781,-210.0,,
1300.796,-210.0,,
1300.811,-210.0,,
1300.826,-210.0,,
1300.841,-210.0,,
1300.856,-210.0,,
1300.871,-210.0,,
1300.886,-210.0,,
1300.901,-210.0,,
1300.916,-210.0,,
1300.931,-210.0,,
1300.946,-210.0,,
1300.961,-210.0,,
1300.976,-210.0,,
1300.991,-210.0,,
1301.006,-83.4,,
1301.021,-81.91,,
1301.036,-73.38,,
1301.051,-75.32,,
1301.066,-210.0,,
1301.081,-85.65,,
1301.096,-210.0,,
1301.111,-210.0,,
1301.126,-210.0,,
1301.141,-210.0,,
1301.156,-96.91,,
1301.171,-210.0,,
1301.186,-72.79,,
1301.201,-72.15,,
1301.216,-71.37,,
1301.231,-73.86,,
1301.246,-210.0,,
1301.261,-72.5,,
1301.276,-72.57,,
1301.292,-210.0,,
1301.307,-210.0,,
1301.321,-210.0,,
1301.336,-78.02,,
1301.351,-71.8,,
1301.366,-210.0,,
1301.381,-210.0,,
1301.396,-71.32,,
1301.411,-69.72,,
1301.427,-72.32,,
1301.442,-70.39,,
1301.457,-69.28,,
1301.471,-65.48,,
1301.486,-69.03,,
1301.501,-70.3,,
1301.516,-65.47,,
1301.531,-66.24,,
1301.547,-65.88,,
1301.562,-65.86,,
1301.577,-65.26,,
1301.592,-63.56,,
1301.606,-64.44,,
1301.621,-66.58,,
1301.636,-65.13,,
1301.651,-65.18,,
1301.667,-64.98,,
1301.682,-65.29,,
1301.697,-65.44,,
1301.712,-64.16,,
1301.727,-63.56,,
1301.742,-65.75,,
1301.756,-66.3,,
1301.771,-65.77,,
1301.786,-65.8,,
1301.802,-66.75,,
1301.817,-66.12,,
1301.832,-66.0,,
1301.847,-64.0,,
1301.862,-65.44,,
1301.877,-65.88,,
1301.891,-65.54,,
1301.906,-65.44,,
1301.922,-65.98,,
1301.937,-65.71,,
1301.952,-65.42,,
1301.967,-65.52,,
1301.982,-65.26,,
1301.997,-67.4,,
1302.012,-67.18,,
1302.027,-67.21,,
1302.042,-67.89,,
1302.057,-67.75,,
1302.072,-68.46,,
1302.087,-68.4,,
1302.102,-68.88,,
1302.117,-69.35,,
1302.132,-67.53,,
1302.147,-68.32,,
1302.162,-70.25,,
1302.177,-68.14,,
1302.192,-67.32,,
1302.207,-66.8,,
1302.222,-67.38,,
1302.237,-67.34,,
1302.252,-67.02,,
1302.267,-67.1,,
1302.282,-68.85,,
1302.297,-67.4,,
1302.312,-67.34,,
1302.327,-67.08,,
1302.342,-66.66,,
1302.357,-69.79,,
1302.372,-70.54,,
1302.387,-69.4,,
1302.402,-68.97,,
1302.417,-68.54,,
1302.432,-70.56,,
1302.447,-70.31,,
1302.462,-71.35,,
1302.477,-210.0,,
1302.492,-74.51,,
1302.507,-72.98,,
1302.522,-210.0,,
1302.537,-71.2,,
1302.552,-74.13,,
1302.567,-210.0,,
1302.582,-76.18,,
1302.597,-210.0,,
1302.612,-210.0,,
1302.627,-210.0,,
1302.642,-210.0,,
1302.657,-210.0,,
1302.672,-210.0,,
1302.687,-210.0,,
1302.702,-210.0,,
1302.717,-210.0,,
1302.732,-210.0,,
1302.747,-210.0,,
1302.762,-210.0,,
1302.777,-210.0,,
1302.792,-210.0,,
1302.807,-210.0,,
1302.822,-210.0,,
1302.837,-210.0,,
1302.852,-210.0,,
1302.867,-210.0,,
1302.882,-210.0,,
1302.897,-210.0,,
1302.912,-210.0,,
1302.927,-210.0,,
1302.942,-210.0,,
1302.957,-210.0,,
1302.972,-210.0,,
1302.987,-210.0,,
1303.002,-210.0,,
1303.017,-210.0,,
1303.032,-210.0,,
1303.047,-210.0,,
1303.062,-210.0,,
1303.077,-210.0,,
1303.092,-210.0,,
1303.107,-210.0,,
1303.122,-69.93,,
1303.137,-67.51,,
1303.152,-68.74,,
1303.167,-69.05,,
1303.182,-69.02,,
1303.197,-70.58,,
1303.212,-74.18,,
1303.227,-210.0,,
1303.242,-210.0,,
1303.257,-67.48,,
1303.272,-67.96,,
1303.287,-67.39,,
1303.302,-69.71,,
1303.317,-67.74,,
1303.332,-67.17,,
1303.347,-68.78,,
1303.362,-69.32,,
1303.377,-65.13,,
1303.392,-64.09,,
1303.407,-66.37,,
1303.422,-67.7,,
1303.437,-65.58,,
1303.452,-64.67,,
1303.467,-65.12,,
1303.482,-65.49,,
1303.497,-64.78,,
1303.512,-63.78,,
1303.527,-64.28,,
1303.542,-67.76,,
1303.557,-67.39,,
1303.572,-65.12,,
1303.587,-65.71,,
1303.602,-67.91,,
1303.617,-65.8,,
1303.632,-65.52,,
1303.647,-64.31,,
1303.662,-68.4,,
1303.677,-68.32,,
1303.692,-65.39,,
1303.707,-64.82,,
1303.722,-65.76,,
1303.737,-66.37,,
1303.752,-65.01,,
1303.767,-63.73,,
1303.782,-64.22,,
1303.797,-65.67,,
1303.812,-63.74,,
1303.827,-64.12,,
1303.842,-66.95,,
1303.857,-70.19,,
1303.872,-66.1,,
1303.887,-66.41,,
1303.902,-69.38,,
1303.917,-210.0,,
1303.932,-67.39,,
1303.947,-66.58,,
1303.962,-73.51,,
1303.977,-210.0,,
1303.992,-66.25,,
1304.007,-66.74,,
1304.022,-66.35,,
1304.037,-70.68,,
1304.052,-67.83,,
1304.067,-65.06,,
1304.082,-66.99,,
1304.097,-78.47,,
1304.112,-67.01,,
1304.127,-66.8,,
1304.142,-70.82,,
1304.157,-210.0,,
1304.172,-210.0,,
1304.187,-69.32,,
1304.202,-70.15,,
1304.217,-210.0,,
1304.232,-75.4,,
1304.247,-68.83,,
1304.262,-71.65,,
1304.277,-210.0,,
1304.292,-210.0,,
1304.307,-77.59,,
1304.322,-69.25,,
1304.337,-82.23,,
1304.352,-210.0,,
1304.367,-70.67,,
1304.382,-69.35,,
1304.397,-210.0,,
1304.412,-210.0,,
1304.427,-72.32,,
1304.442,-69.51,,
1304.457,-71.61,,
1304.472,-210.0,,
1304.487,-210.0,,
1304.502,-72.16,,
1304.517,-210.0,,
1304.532,-210.0,,
1304.547,-210.0,,
1304.562,-68.77,,
1304.577,-74.28,,
1304.592,-210.0,,
1304.607,-210.0,,
1304.622,-71.1,,
1304.637,-72.42,,
1304.652,-210.0,,
1304.667,-75.06,,
1304.682,-68.01,,
1304.697,-70.44,,
1304.712,-210.0,,
1304.727,-210.0,,
1304.742,-69.02,,
1304.757,-68.52,,
1304.772,-75.65,,
1304.787,-210.0,,
1304.802,-72.83,,
1304.817,-76.73,,
1304.832,-210.0,,
1304.847,-77.39,,
1304.862,-67.33,,
1304.877,-67.8,,
1304.892,-210.0,,
1304.907,-71.38,,
1304.922,-66.74,,
1304.937,-65.96,,
1304.952,-69.25,,
1304.967,-68.76,,
1304.982,-64.9,,
1304.997,-65.59,,
1305.012,-69.48,,
1305.027,-71.03,,
1305.042,-66.76,,
1305.057,-67.39,,
1305.072,-71.03,,
1305.087,-210.0,,
1305.102,-67.41,,
1305.117,-66.85,,
1305.132,-72.93,,
1305.147,-73.8,,
1305.162,-68.76,,
1305.177,-65.96,,
1305.192,-70.9,,
1305.207,-72.7,,
1305.222,-75.33,,
1305.237,-66.89,,
1305.252,-68.24,,
1305.267,-210.0,,
1305.282,-67.2,,
1305.297,-65.88,,
1305.312,-67.44,,
1305.327,-75.19,,
1305.342,-69.78,,
1305.357,-66.55,,
1305.372,-66.51,,
1305.387,-78.77,,
1305.402,-72.07,,
1305.417,-65.93,,
1305.432,-68.05,,
1305.447,-210.0,,
1305.462,-210.0,,
1305.477,-69.27,,
1305.492,-67.28,,
1305.507,-210.0,,
1305.522,-210.0,,
1305.537,-71.34,,
1305.552,-69.48,,
1305.567,-76.05,,
1305.582,-76.49,,
1305.597,-67.6,,
1305.612,-65.35,,
1305.627,-68.09,,
1305.642,-71.6,,
1305.657,-73.26,,
1305.672,-67.05,,
1305.687,-68.84,,
1305.702,-85.87,,
1305.717,-70.17,,
1305.732,-68.34,,
1305.747,-70.84,,
1305.762,-210.0,,
1305.777,-210.0,,
1305.792,-210.0,,
1305.807,-210.0,,
1305.822,-210.0,,
1305.837,-210.0,,
1305.852,-210.0,,
1305.867,-210.0,,
1305.882,-210.0,,
1305.897,-80.24,,
1305.912,-210.0,,
1305.927,-210.0,,
1305.942,-210.0,,
1305.957,-210.0,,
1305.972,-210.0,,
1305.987,-210.0,,
1306.002,-210.0,,
1306.017,-210.0,,
1306.032,-210.0,,
1306.047,-210.0,,
1306.062,-210.0,,
1306.077,-210.0,,
1306.092,-210.0,,
1306.107,-84.34,,
1306.122,-210.0,,
1306.137,-210.0,,
1306.152,-210.0,,
1306.167,-210.0,,
1306.182,-210.0,,
1306.197,-210.0,,
1306.212,-210.0,,
1306.227,-77.94,,
1306.242,-82.67,,
1306.257,-210.0,,
1306.272,-210.0,,
1306.287,-85.92,,
1306.302,-210.0,,
1306.317,-74.98,,
1306.332,-75.2,,
1306.347,-210.0,,
1306.362,-210.0,,
1306.377,-210.0,,
1306.392,-210.0,,
1306.407,-91.92,,
1306.422,-210.0,,
1306.437,-210.0,,
1306.452,-68.3,,
1306.467,-73.69,,
1306.482,-73.03,,
1306.497,-75.13,,
1306.512,-74.8,,
1306.527,-70.67,,
1306.542,-67.82,,
1306.557,-68.91,,
1306.572,-69.16,,
1306.587,-70.08,,
1306.602,-71.57,,
1306.617,-71.52,,
1306.632,-70.97,,
1306.647,-210.0,,
1306.662,-68.35,,
1306.677,-70.79,,
1306.692,-210.0,,
1306.707,-76.25,,
1306.722,-210.0,,
1306.737,-210.0,,
1306.752,-210.0,,
1306.767,-210.0,,
1306.782,-74.04,,
1306.797,-69.63,,
1306.812,-75.9,,
1306.827,-210.0,,
1306.842,-70.48,,
1306.857,-68.21,,
1306.872,-69.31,,
1306.887,-68.88,,
1306.902,-76.9,,
1306.917,-67.36,,
1306.932,-68.09,,
1306.947,-210.0,,
1306.962,-79.66,,
1306.977,-67.79,,
1306.992,-75.53,,
1307.007,-210.0,,
1307.022,-210.0,,
1307.037,-210.0,,
1307.052,-80.46,,
1307.067,-210.0,,
1307.082,-210.0,,
1307.097,-210.0,,
1307.112,-210.0,,
1307.127,-210.0,,
1307.142,-210.0,,
1307.157,-210.0,,
1307.172,-68.34,,
1307.187,-71.51,,
1307.202,-210.0,,
1307.217,-68.21,,
1307.232,-69.13,,
1307.247,-210.0,,
1307.262,-210.0,,
1307.277,-68.68,,
1307.292,-76.22,,
1307.307,-210.0,,
1307.322,-210.0,,
1307.337,-210.0,,
1307.352,-210.0,,
1307.367,-210.0,,
1307.382,-210.0,,
1307.397,-210.0,,
1307.412,-210.0,,
1307.427,-210.0,,
1307.442,-210.0,,
1307.457,-210.0,,
1307.472,-210.0,,
1307.487,-210.0,,
1307.502,-210.0,,
1307.517,-210.0,,
1307.532,-81.14,,
1307.547,-210.0,,
1307.562,-210.0,,
1307.577,-210.0,,
1307.592,-90.01,,
1307.607,-210.0,,
1307.622,-210.0,,
1307.637,-210.0,,
1307.652,-70.11,,
1307.667,-75.25,,
1307.682,-210.0,,
1307.697,-210.0,,
1307.712,-73.3,,
1307.727,-68.17,,
1307.742,-77.27,,
1307.757,-79.28,,
1307.772,-67.5,,
1307.787,-67.55,,
1307.802,-73.67,,
1307.817,-69.83,,
1307.832,-66.27,,
1307.847,-65.28,,
1307.862,-68.38,,
1307.877,-78.75,,
1307.892,-69.27,,
1307.907,-66.6,,
1307.922,-80.72,,
1307.937,-210.0,,
1307.952,-68.19,,
1307.967,-67.54,,
1307.982,-210.0,,
1307.997,-210.0,,
1308.012,-210.0,,
1308.027,-68.43,,
1308.042,-70.4,,
1308.057,-210.0,,
1308.072,-68.46,,
1308.087,-65.44,,
1308.102,-67.55,,
1308.117,-69.55,,
1308.132,-64.69,,
1308.147,-64.77,,
1308.162,-67.12,,
1308.177,-76.25,,
1308.192,-77.54,,
1308.207,-67.36,,
1308.222,-70.79,,
1308.237,-210.0,,
1308.252,-71.67,,
1308.267,-67.74,,
1308.282,-210.0,,
1308.297,-210.0,,
1308.312,-70.95,,
1308.327,-69.15,,
1308.342,-78.24,,
1308.357,-210.0,,
1308.372,-210.0,,
1308.387,-67.05,,
1308.402,-68.77,,
1308.417,-210.0,,
1308.432,-73.5,,
1308.447,-68.17,,
1308.462,-80.78,,
1308.477,-210.0,,
1308.492,-210.0,,
1308.507,-74.53,,
1308.522,-210.0,,
1308.537,-210.0,,
1308.552,-210.0,,
1308.567,-210.0,,
1308.582,-210.0,,
1308.597,-210.0,,
1308.612,-210.0,,
1308.627,-210.0,,
1308.642,-210.0,,
1308.657,-210.0,,
1308.672,-210.0,,
1308.687,-210.0,,
1308.702,-210.0,,
1308.717,-210.0,,
1308.732,-210.0,,
1308.747,-75.13,,
1308.762,-75.48,,
1308.777,-210.0,,
1308.792,-210.0,,
1308.807,-68.42,,
1308.822,-210.0,,
1308.837,-210.0,,
1308.852,-210.0,,
1308.867,-210.0,,
1308.882,-210.0,,
1308.897,-210.0,,
1308.912,-210.0,,
1308.927,-210.0,,
1308.942,-210.0,,
1308.957,-210.0,,
1308.972,-210.0,,
1308.987,-210.0,,
1309.002,-69.07,,
1309.017,-67.82,,
1309.032,-74.16,,
1309.047,-67.36,,
1309.062,-65.18,,
1309.077,-68.61,,
1309.092,-73.21,,
1309.107,-67.1,,
1309.122,-66.97,,
1309.137,-68.33,,
1309.152,-81.6,,
1309.167,-69.94,,
1309.182,-66.02,,
1309.198,-66.33,,
1309.212,-72.76,,
1309.227,-70.56,,
1309.242,-66.51,,
1309.257,-68.07,,
1309.272,-74.21,,
1309.287,-74.65,,
1309.302,-67.68,,
1309.318,-67.42,,
1309.333,-70.0,,
1309.347,-67.82,,
1309.362,-64.51,,
1309.377,-64.35,,
1309.392,-67.84,,
1309.407,-68.18,,
1309.422,-64.62,,
1309.438,-63.79,,
1309.453,-64.64,,
1309.468,-65.25,,
1309.483,-63.43,,
1309.497,-64.18,,
1309.512,-65.55,,
1309.527,-65.51,,
1309.542,-63.43,,
1309.557,-63.54,,
1309.573,-66.43,,
1309.588,-66.7,,
1309.603,-65.34,,
1309.618,-64.71,,
1309.632,-65.01,,
1309.647,-65.5,,
1309.662,-64.63,,
1309.677,-64.64,,
1309.693,-66.05,,
1309.708,-71.64,,
1309.723,-66.75,,
1309.738,-65.36,,
1309.753,-67.36,,
1309.768,-71.86,,
1309.782,-70.27,,
1309.797,-70.94,,
1309.813,-77.38,,
1309.828,-72.15,,
1309.843,-72.41,,
1309.858,-67.63,,
1309.873,-69.94,,
1309.888,-210.0,,
1309.903,-76.54,,
1309.917,-67.53,,
1309.932,-72.88,,
1309.948,-210.0,,
1309.963,-210.0,,
1309.978,-73.72,,
1309.993,-71.26,,
1310.008,-210.0,,
1310.023,-210.0,,
1310.038,-72.73,,
1310.053,-210.0,,
1310.068,-210.0,,
1310.083,-210.0,,
1310.098,-210.0,,
1310.113,-210.0,,
1310.128,-210.0,,
1310.143,-210.0,,
1310.158,-210.0,,
1310.173,-210.0,,
1310.188,-210.0,,
1310.203,-210.0,,
1310.218,-210.0,,
1310.233,-210.0,,
1310.248,-210.0,,
1310.263,-210.0,,
1310.278,-210.0,,
1310.293,-210.0,,
1310.308,-210.0,,
1310.323,-210.0,,
1310.338,-210.0,,
1310.353,-210.0,,
1310.368,-210.0,,
1310.383,-210.0,,
1310.398,-210.0,,
1310.413,-210.0,,
1310.428,-210.0,,
1310.443,-210.0,,
1310.458,-210.0,,
1310.473,-210.0,,
1310.488,-210.0,,
1310.503,-210.0,,
1310.518,-210.0,,
1310.533,-210.0,,
1310.548,-210.0,,
1310.563,-210.0,,
1310.578,-210.0,,
1310.593,-210.0,,
1310.608,-210.0,,
1310.623,-210.0,,
1310.638,-210.0,,
1310.653,-210.0,,
1310.668,-210.0,,
1310.683,-210.0,,
1310.698,-210.0,,
1310.713,-210.0,,
1310.728,-210.0,,
1310.743,-210.0,,
1310.758,-210.0,,
1310.773,-210.0,,
1310.788,-210.0,,
1310.803,-210.0,,
1310.818,-210.0,,
1310.833,-210.0,,
1310.848,-210.0,,
1310.863,-210.0,,
1310.878,-210.0,,
1310.893,-210.0,,
1310.908,-210.0,,
1310.923,-210.0,,
1310.938,-210.0,,
1310.953,-210.0,,
1310.968,-210.0,,
1310.983,-210.0,,
1310.998,-210.0,,
1311.013,-210.0,,
1311.028,-74.11,,
1311.043,-210.0,,
1311.058,-210.0,,
1311.073,-210.0,,
1311.088,-210.0,,
1311.103,-210.0,,
1311.118,-210.0,,
1311.133,-210.0,,
1311.148,-210.0,,
1311.163,-210.0,,
1311.178,-210.0,,
1311.193,-72.67,,
1311.208,-68.11,,
1311.223,-78.19,,
1311.238,-210.0,,
1311.253,-66.65,,
1311.268,-69.01,,
1311.283,-210.0,,
1311.298,-70.45,,
1311.313,-69.33,,
1311.328,-70.07,,
1311.343,-70.01,,
1311.358,-68.56,,
1311.373,-66.86,,
1311.388,-65.6,,
1311.403,-70.06,,
1311.418,-69.27,,
1311.433,-65.72,,
1311.448,-66.3,,
1311.463,-70.42,,
1311.478,-66.76,,
1311.493,-65.63,,
1311.508,-64.57,,
1311.523,-65.66,,
1311.538,-65.74,,
1311.553,-64.67,,
1311.568,-63.32,,
1311.583,-65.39,,
1311.598,-66.44,,
1311.613,-63.72,,
1311.628,-63.17,,
1311.643,-65.29,,
1311.658,-64.84,,
1311.673,-65.18,,
1311.688,-64.5,,
1311.703,-64.93,,
1311.718,-65.17,,
1311.733,-64.65,,
1311.748,-63.17,,
1311.763,-64.67,,
1311.778,-65.63,,
1311.793,-63.14,,
1311.808,-63.05,,
1311.823,-64.79,,
1311.838,-63.6,,
1311.853,-63.56,,
1311.868,-63.62,,
1311.883,-63.61,,
1311.898,-63.9,,
1311.913,-62.95,,
1311.928,-62.01,,
1311.943,-63.26,,
1311.958,-64.58,,
1311.973,-62.66,,
1311.988,-62.64,,
1312.003,-64.58,,
1312.018,-64.06,,
1312.033,-63.3,,
1312.048,-63.04,,
1312.063,-63.21,,
1312.078,-63.06,,
1312.093,-63.22,,
1312.108,-61.97,,
1312.123,-62.98,,
1312.138,-64.06,,
1312.153,-62.69,,
1312.168,-62.04,,
1312.183,-63.52,,
1312.198,-64.14,,
1312.213,-64.31,,
1312.228,-63.55,,
1312.243,-64.58,,
1312.258,-67.43,,
1312.273,-65.87,,
1312.288,-63.8,,
1312.303,-66.55,,
1312.318,-69.05,,
1312.333,-65.07,,
1312.348,-65.17,,
1312.363,-69.68,,
1312.378,-71.08,,
1312.393,-70.12,,
1312.408,-67.55,,
1312.423,-69.38,,
1312.438,-78.4,,
1312.453,-68.91,,
1312.468,-65.94,,
1312.483,-68.01,,
1312.498,-73.85,,
1312.513,-69.64,,
1312.528,-67.69,,
1312.543,-72.89,,
1312.558,-210.0,,
1312.573,-75.76,,
1312.588,-70.44,,
1312.603,-78.46,,
1312.618,-210.0,,
1312.633,-210.0,,
1312.648,-69.67,,
1312.663,-72.52,,
1312.678,-210.0,,
1312.693,-210.0,,
1312.708,-68.9,,
1312.723,-210.0,,
1312.738,-210.0,,
1312.753,-210.0,,
1312.768,-75.65,,
1312.783,-210.0,,
1312.798,-210.0,,
1312.813,-210.0,,
1312.828,-77.32,,
1312.843,-210.0,,
1312.858,-210.0,,
1312.873,-210.0,,
1312.888,-210.0,,
1312.903,-210.0,,
1312.918,-210.0,,
1312.933,-210.0,,
1312.948,-210.0,,
1312.963,-210.0,,
1312.978,-210.0,,
1312.993,-210.0,,
1313.008,-210.0,,
1313.023,-210.0,,
1313.038,-210.0,,
1313.053,-210.0,,
1313.068,-210.0,,
1313.083,-210.0,,
1313.098,-210.0,,
1313.113,-210.0,,
1313.128,-210.0,,
1313.143,-210.0,,
1313.158,-210.0,,
1313.173,-210.0,,
1313.188,-210.0,,
1313.203,-210.0,,
1313.218,-210.0,,
1313.233,-210.0,,
1313.248,-210.0,,
1313.263,-210.0,,
1313.278,-210.0,,
1313.293,-210.0,,
1313.308,-210.0,,
1313.323,-210.0,,
1313.338,-210.0,,
1313.353,-210.0,,
1313.368,-87.57,,
1313.383,-210.0,,
1313.398,-210.0,,
1313.413,-76.6,,
1313.428,-210.0,,
1313.443,-74.7,,
1313.458,-79.97,,
1313.473,-210.0,,
1313.488,-210.0,,
1313.503,-210.0,,
1313.518,-210.0,,
1313.533,-210.0,,
1313.548,-210.0,,
1313.563,-210.0,,
1313.578,-210.0,,
1313.593,-210.0,,
1313.608,-210.0,,
1313.623,-210.0,,
1313.638,-210.0,,
1313.653,-210.0,,
1313.668,-210.0,,
1313.683,-210.0,,
1313.698,-210.0,,
1313.713,-210.0,,
1313.728,-210.0,,
1313.743,-210.0,,
1313.758,-210.0,,
1313.773,-210.0,,
1313.788,-210.0,,
1313.803,-210.0,,
1313.818,-210.0,,
1313.833,-210.0,,
1313.848,-210.0,,
1313.863,-210.0,,
1313.878,-210.0,,
1313.893,-210.0,,
1313.908,-210.0,,
1313.923,-210.0,,
1313.938,-210.0,,
1313.953,-210.0,,
1313.968,-210.0,,
1313.983,-210.0,,
1313.998,-210.0,,
1314.013,-210.0,,
1314.028,-73.23,,
1314.043,-210.0,,
1314.058,-210.0,,
1314.073,-210.0,,
1314.088,-210.0,,
1314.103,-210.0,,
1314.118,-210.0,,
1314.133,-210.0,,
1314.148,-210.0,,
1314.163,-210.0,,
1314.178,-210.0,,
1314.193,-210.0,,
1314.208,-210.0,,
1314.223,-210.0,,
1314.238,-210.0,,
1314.253,-210.0,,
1314.268,-80.75,,
1314.283,-210.0,,
1314.298,-210.0,,
1314.313,-210.0,,
1314.328,-210.0,,
1314.343,-210.0,,
1314.358,-210.0,,
1314.373,-210.0,,
1314.388,-210.0,,
1314.403,-210.0,,
1314.418,-210.0,,
1314.433,-210.0,,
1314.448,-210.0,,
1314.463,-210.0,,
1314.478,-210.0,,
1314.493,-74.34,,
1314.508,-72.06,,
1314.523,-92.82,,
1314.538,-79.24,,
1314.553,-210.0,,
1314.568,-76.07,,
1314.583,-72.99,,
1314.598,-210.0,,
1314.613,-75.05,,
1314.628,-68.67,,
1314.643,-73.17,,
1314.658,-210.0,,
1314.673,-69.46,,
1314.688,-67.77,,
1314.703,-70.44,,
1314.718,-68.74,,
1314.733,-71.03,,
1314.748,-69.61,,
1314.763,-68.42,,
1314.778,-69.72,,
1314.793,-69.83,,
1314.808,-65.14,,
1314.823,-66.39,,
1314.838,-210.0,,
1314.853,-68.4,,
1314.868,-66.75,,
1314.883,-67.12,,
1314.898,-68.29,,
1314.913,-67.93,,
1314.928,-66.29,,
1314.943,-67.37,,
1314.958,-69.27,,
1314.973,-66.87,,
1314.988,-67.27,,
1315.003,-68.77,,
1315.018,-210.0,,
1315.033,-68.83,,
1315.048,-67.71,,
1315.063,-66.82,,
1315.078,-67.77,,
1315.093,-68.76,,
1315.108,-67.57,,
1315.123,-71.13,,
1315.138,-69.65,,
1315.153,-68.02,,
1315.168,-68.42,,
1315.183,-69.56,,
1315.198,-68.0,,
1315.213,-66.07,,
1315.228,-64.66,,
1315.243,-65.27,,
1315.258,-67.13,,
1315.273,-66.03,,
1315.288,-64.12,,
1315.303,-66.38,,
1315.318,-66.89,,
1315.333,-65.02,,
1315.348,-64.05,,
1315.363,-65.62,,
1315.378,-64.77,,
1315.393,-65.63,,
1315.408,-67.28,,
1315.423,-66.35,,
1315.438,-66.12,,
1315.453,-66.56,,
1315.468,-65.0,,
1315.483,-66.43,,
1315.498,-67.38,,
1315.513,-65.86,,
1315.528,-64.6,,
1315.543,-65.64,,
1315.558,-66.0,,
1315.573,-64.44,,
1315.588,-65.04,,
1315.603,-64.45,,
1315.618,-64.1,,
1315.633,-65.44,,
1315.648,-66.63,,
1315.663,-66.65,,
1315.678,-68.06,,
1315.693,-68.25,,
1315.708,-66.22,,
1315.723,-68.33,,
1315.738,-67.9,,
1315.753,-66.88,,
1315.768,-67.23,,
1315.783,-67.58,,
1315.798,-66.01,,
1315.813,-68.58,,
1315.828,-74.22,,
1315.843,-66.9,,
1315.858,-66.23,,
1315.873,-65.58,,
1315.888,-64.77,,
1315.903,-66.52,,
1315.918,-66.32,,
1315.933,-65.38,,
1315.948,-65.06,,
1315.963,-66.39,,
1315.978,-66.03,,
1315.993,-64.46,,
1316.008,-66.38,,
1316.023,-64.38,,
1316.038,-64.89,,
1316.053,-66.24,,
1316.068,-67.63,,
1316.083,-65.36,,
1316.098,-65.47,,
1316.113,-64.91,,
1316.128,-63.99,,
1316.143,-65.32,,
1316.158,-64.57,,
1316.173,-63.7,,
1316.188,-64.22,,
1316.203,-65.3,,
1316.218,-64.38,,
1316.233,-66.02,,
1316.248,-66.49,,
1316.263,-64.56,,
1316.278,-64.15,,
1316.293,-65.74,,
1316.308,-64.76,,
1316.323,-65.8,,
1316.338,-65.87,,
1316.353,-65.54,,
1316.368,-65.89,,
1316.383,-65.94,,
1316.398,-65.77,,
1316.413,-64.15,,
1316.428,-64.34,,
1316.443,-64.13,,
1316.458,-64.47,,
1316.473,-66.91,,
1316.488,-64.74,,
1316.503,-63.47,,
1316.518,-64.31,,
1316.533,-63.69,,
1316.548,-64.59,,
1316.563,-64.04,,
1316.578,-63.79,,
1316.593,-63.94,,
1316.608,-64.35,,
1316.623,-64.1,,
1316.638,-64.11,,
1316.653,-64.17,,
1316.668,-64.07,,
1316.683,-63.22,,
1316.698,-63.48,,
1316.713,-65.16,,
1316.728,-63.7,,
1316.743,-63.17,,
1316.758,-63.57,,
1316.773,-64.5,,
1316.788,-63.19,,
1316.803,-64.08,,
1316.818,-63.42,,
1316.833,-63.4,,
1316.848,-64.34,,
1316.863,-63.91,,
1316.878,-65.18,,
1316.893,-68.44,,
1316.908,-64.73,,
1316.923,-64.12,,
1316.938,-65.91,,
1316.953,-68.07,,
1316.968,-65.12,,
1316.983,-65.35,,
1316.998,-68.6,,
1317.013,-67.53,,
1317.028,-65.96,,
1317.043,-65.99,,
1317.058,-67.99,,
1317.073,-64.51,,
1317.088,-65.65,,
1317.103,-65.13,,
1317.118,-65.79,,
1317.133,-67.74,,
1317.148,-64.87,,
1317.163,-65.53,,
1317.178,-70.42,,
1317.193,-68.77,,
1317.208,-66.68,,
1317.224,-68.83,,
1317.238,-71.02,,
1317.253,-68.87,,
1317.268,-67.9,,
1317.283,-72.32,,
1317.298,-210.0,,
1317.313,-78.23,,
1317.328,-66.8,,
1317.344,-70.8,,
1317.359,-75.88,,
1317.373,-73.37,,
1317.388,-72.4,,
1317.403,-71.58,,
1317.418,-210.0,,
1317.433,-210.0,,
1317.448,-87.25,,
1317.464,-210.0,,
1317.479,-210.0,,
1317.494,-210.0,,
1317.509,-210.0,,
1317.523,-210.0,,
1317.538,-210.0,,
1317.553,-210.0,,
1317.568,-210.0,,
1317.583,-210.0,,
1317.599,-210.0,,
1317.614,-210.0,,
1317.629,-210.0,,
1317.644,-210.0,,
1317.658,-210.0,,
1317.673,-210.0,,
1317.688,-210.0,,
1317.703,-210.0,,
1317.719,-210.0,,
1317.734,-210.0,,
1317.749,-210.0,,
1317.764,-210.0,,
1317.779,-210.0,,
1317.794,-210.0,,
1317.808,-210.0,,
1317.823,-210.0,,
1317.839,-210.0,,
1317.854,-210.0,,
1317.869,-210.0,,
1317.884,-210.0,,
1317.899,-210.0,,
1317.914,-210.0,,
1317.929,-210.0,,
1317.944,-210.0,,
1317.958,-210.0,,
1317.974,-210.0,,
1317.989,-210.0,,
1318.004,-210.0,,
1318.019,-76.3,,
1318.034,-210.0,,
1318.049,-210.0,,
1318.064,-71.0,,
1318.079,-210.0,,
1318.094,-72.58,,
1318.109,-71.36,,
1318.124,-210.0,,
1318.139,-210.0,,
1318.154,-77.43,,
1318.169,-210.0,,
1318.184,-210.0,,
1318.199,-73.68,,
1318.214,-69.93,,
1318.229,-82.82,,
1318.244,-210.0,,
1318.259,-210.0,,
1318.274,-75.17,,
1318.289,-73.13,,
1318.304,-68.38,,
1318.319,-69.35,,
1318.334,-69.08,,
1318.349,-67.94,,
1318.364,-80.16,,
1318.379,-69.06,,
1318.394,-66.08,,
1318.409,-68.65,,
1318.424,-75.14,,
1318.439,-65.73,,
1318.454,-66.18,,
1318.469,-66.37,,
1318.484,-65.71,,
1318.499,-65.81,,
1318.514,-66.13,,
1318.529,-65.73,,
1318.544,-66.11,,
1318.559,-65.48,,
1318.574,-66.18,,
1318.589,-65.51,,
1318.604,-66.01,,
1318.619,-63.48,,
1318.634,-63.75,,
1318.649,-64.92,,
1318.664,-64.1,,
1318.679,-63.23,,
1318.694,-64.07,,
1318.709,-65.62,,
1318.724,-63.66,,
1318.739,-64.0,,
1318.754,-63.81,,
1318.769,-63.58,,
1318.784,-64.03,,
1318.799,-63.79,,
1318.814,-63.61,,
1318.829,-65.99,,
1318.844,-66.57,,
1318.859,-65.03,,
1318.874,-65.67,,
1318.889,-70.43,,
1318.904,-65.86,,
1318.919,-64.94,,
1318.934,-67.65,,
1318.949,-68.92,,
1318.964,-65.76,,
1318.979,-65.9,,
1318.994,-69.98,,
1319.009,-68.91,,
1319.024,-68.66,,
1319.039,-66.04,,
1319.054,-67.86,,
1319.069,-74.83,,
1319.084,-67.71,,
1319.099,-66.8,,
1319.114,-71.73,,
1319.129,-210.0,,
1319.144,-67.29,,
1319.159,-67.34,,
1319.174,-74.0,,
1319.189,-70.95,,
1319.204,-66.51,,
1319.219,-67.96,,
1319.234,-73.68,,
1319.249,-70.59,,
1319.264,-65.9,,
1319.279,-65.23,,
1319.294,-66.95,,
1319.309,-68.42,,
1319.324,-66.08,,
1319.339,-66.25,,
1319.354,-67.34,,
1319.369,-66.65,,
1319.384,-65.44,,
1319.399,-66.29,,
1319.414,-69.84,,
1319.429,-67.18,,
1319.444,-66.91,,
1319.459,-69.13,,
1319.474,-210.0,,
1319.489,-74.86,,
1319.504,-67.99,,
1319.519,-71.76,,
1319.534,-210.0,,
1319.549,-69.25,,
1319.564,-67.74,,
1319.579,-68.75,,
1319.594,-76.95,,
1319.609,-70.37,,
1319.624,-68.88,,
1319.639,-72.94,,
1319.654,-210.0,,
1319.669,-71.62,,
1319.684,-71.39,,
1319.699,-210.0,,
1319.714,-74.81,,
1319.729,-69.57,,
1319.744,-68.24,,
1319.759,-210.0,,
1319.774,-210.0,,
1319.789,-69.8,,
1319.804,-74.85,,
1319.819,-210.0,,
1319.834,-210.0,,
1319.849,-84.05,,
1319.864,-210.0,,
1319.879,-210.0,,
1319.894,-210.0,,
1319.909,-210.0,,
1319.924,-210.0,,
1319.939,-210.0,,
1319.954,-210.0,,
1319.969,-80.02,,
1319.984,-210.0,,
1319.999,-210.0,,
1320.014,-72.62,,
1320.029,-69.8,,
1320.044,-210.0,,
1320.059,-210.0,,
1320.074,-72.2,,
1320.089,-75.12,,
1320.104,-210.0,,
1320.119,-210.0,,
1320.134,-210.0,,
1320.149,-80.12,,
1320.164,-210.0,,
1320.179,-210.0,,
1320.194,-210.0,,
1320.209,-210.0,,
1320.224,-210.0,,
1320.239,-210.0,,
1320.254,-210.0,,
1320.269,-210.0,,
1320.284,-210.0,,
1320.299,-210.0,,
1320.314,-210.0,,
1320.329,-210.0,,
1320.344,-210.0,,
1320.359,-210.0,,
1320.374,-210.0,,
1320.389,-210.0,,
1320.404,-210.0,,
1320.419,-210.0,,
1320.434,-210.0,,
1320.449,-210.0,,
1320.464,-210.0,,
1320.479,-210.0,,
1320.494,-210.0,,
1320.509,-210.0,,
1320.524,-210.0,,
1320.539,-210.0,,
1320.554,-210.0,,
1320.569,-210.0,,
1320.584,-210.0,,
1320.599,-210.0,,
1320.614,-210.0,,
1320.629,-210.0,,
1320.644,-210.0,,
1320.659,-210.0,,
1320.674,-210.0,,
1320.689,-210.0,,
1320.704,-210.0,,
1320.719,-210.0,,
1320.734,-210.0,,
1320.749,-210.0,,
1320.764,-210.0,,
1320.779,-210.0,,
1320.794,-210.0,,
1320.809,-210.0,,
1320.824,-210.0,,
1320.839,-210.0,,
1320.854,-210.0,,
1320.869,-210.0,,
1320.884,-210.0,,
1320.899,-75.48,,
1320.914,-210.0,,
1320.929,-210.0,,
1320.944,-81.47,,
1320.959,-210.0,,
1320.974,-210.0,,
1320.989,-210.0,,
1321.004,-210.0,,
1321.019,-210.0,,
1321.034,-210.0,,
1321.049,-210.0,,
1321.064,-74.9,,
1321.079,-210.0,,
1321.094,-210.0,,
1321.109,-210.0,,
1321.124,-210.0,,
1321.139,-75.12,,
1321.154,-210.0,,
1321.169,-210.0,,
1321.184,-210.0,,
1321.199,-85.08,,
1321.214,-210.0,,
1321.229,-210.0,,
1321.244,-210.0,,
1321.259,-210.0,,
1321.274,-210.0,,
1321.289,-210.0,,
1321.304,-75.72,,
1321.319,-210.0,,
1321.334,-210.0,,
1321.349,-210.0,,
1321.364,-210.0,,
1321.379,-210.0,,
1321.394,-210.0,,
1321.409,-210.0,,
1321.424,-210.0,,
1321.439,-210.0,,
1321.454,-210.0,,
1321.469,-210.0,,
1321.484,-79.71,,
1321.499,-210.0,,
1321.514,-210.0,,
1321.529,-210.0,,
1321.544,-210.0,,
1321.559,-210.0,,
1321.574,-210.0,,
1321.589,-210.0,,
1321.604,-210.0,,
1321.619,-210.0,,
1321.634,-210.0,,
1321.649,-210.0,,
1321.664,-210.0,,
1321.679,-210.0,,
1321.694,-210.0,,
1321.709,-84.26,,
1321.724,-210.0,,
1321.739,-210.0,,
1321.754,-210.0,,
1321.769,-71.62,,
1321.784,-210.0,,
1321.799,-210.0,,
1321.814,-210.0,,
1321.829,-69.52,,
1321.844,-210.0,,
1321.859,-210.0,,
1321.874,-67.92,,
1321.889,-69.74,,
1321.904,-210.0,,
1321.919,-210.0,,
1321.934,-69.82,,
1321.949,-210.0,,
1321.964,-210.0,,
1321.979,-75.78,,
1321.994,-68.15,,
1322.009,-71.57,,
1322.024,-210.0,,
1322.039,-77.24,,
1322.054,-68.18,,
1322.069,-75.56,,
1322.084,-210.0,,
1322.099,-210.0,,
1322.114,-68.26,,
1322.129,-73.32,,
1322.144,-210.0,,
1322.159,-210.0,,
1322.174,-67.97,,
1322.189,-93.97,,
1322.204,-210.0,,
1322.219,-70.04,,
1322.234,-67.87,,
1322.249,-210.0,,
1322.264,-83.25,,
1322.279,-67.24,,
1322.294,-72.07,,
1322.309,-74.77,,
1322.324,-210.0,,
1322.339,-69.42,,
1322.354,-70.74,,
1322.369,-210.0,,
1322.384,-78.63,,
1322.399,-69.18,,
1322.414,-73.71,,
1322.429,-210.0,,
1322.444,-70.68,,
1322.459,-70.45,,
1322.474,-73.64,,
1322.489,-210.0,,
1322.504,-73.72,,
1322.519,-69.53,,
1322.534,-210.0,,
1322.549,-210.0,,
1322.564,-69.61,,
1322.579,-71.59,,
1322.594,-210.0,,
1322.609,-210.0,,
1322.624,-71.8,,
1322.639,-79.62,,
1322.654,-210.0,,
1322.669,-210.0,,
1322.684,-70.55,,
1322.699,-78.61,,
1322.714,-210.0,,
1322.729,-210.0,,
1322.744,-210.0,,
1322.759,-81.61,,
1322.774,-210.0,,
1322.789,-210.0,,
1322.804,-72.75,,
1322.819,-210.0,,
1322.834,-210.0,,
1322.849,-210.0,,
1322.864,-210.0,,
1322.879,-210.0,,
1322.894,-210.0,,
1322.909,-210.0,,
1322.924,-210.0,,
1322.939,-210.0,,
1322.954,-210.0,,
1322.969,-210.0,,
1322.984,-210.0,,
1322.999,-210.0,,
1323.014,-210.0,,
1323.029,-210.0,,
1323.044,-210.0,,
1323.059,-210.0,,
1323.074,-210.0,,
1323.089,-210.0,,
1323.104,-210.0,,
1323.119,-210.0,,
1323.134,-210.0,,
1323.149,-210.0,,
1323.164,-210.0,,
1323.179,-210.0,,
1323.194,-210.0,,
1323.209,-210.0,,
1323.224,-210.0,,
1323.239,-210.0,,
1323.254,-86.45,,
1323.269,-210.0,,
1323.284,-210.0,,
1323.299,-210.0,,
1323.314,-210.0,,
1323.329,-210.0,,
1323.344,-210.0,,
1323.359,-210.0,,
1323.374,-71.57,,
1323.389,-67.29,,
1323.404,-71.75,,
1323.419,-210.0,,
1323.434,-69.4,,
1323.449,-68.2,,
1323.464,-210.0,,
1323.479,-210.0,,
1323.494,-68.23,,
1323.509,-69.68,,
1323.524,-210.0,,
1323.539,-68.62,,
1323.554,-68.0,,
1323.569,-73.19,,
1323.584,-210.0,,
1323.599,-69.39,,
1323.614,-66.14,,
1323.629,-69.88,,
1323.644,-72.88,,
1323.659,-68.19,,
1323.674,-66.43,,
1323.689,-72.75,,
1323.704,-71.31,,
1323.719,-67.01,,
1323.734,-69.62,,
1323.749,-210.0,,
1323.764,-210.0,,
1323.779,-73.35,,
1323.794,-72.99,,
1323.809,-210.0,,
1323.824,-210.0,,
1323.839,-69.44,,
1323.854,-78.49,,
1323.869,-210.0,,
1323.884,-71.22,,
1323.899,-69.49,,
1323.914,-210.0,,
1323.929,-210.0,,
1323.944,-68.66,,
1323.959,-68.5,,
1323.974,-210.0,,
1323.989,-71.28,,
1324.004,-69.33,,
1324.019,-67.71,,
1324.034,-73.77,,
1324.049,-210.0,,
1324.064,-69.82,,
1324.079,-72.17,,
1324.094,-210.0,,
1324.109,-210.0,,
1324.124,-68.46,,
1324.139,-69.15,,
1324.154,-210.0,,
1324.169,-69.43,,
1324.184,-65.89,,
1324.199,-68.02,,
1324.214,-75.67,,
1324.229,-67.53,,
1324.244,-67.01,,
1324.259,-210.0,,
1324.274,-210.0,,
1324.289,-68.65,,
1324.304,-68.77,,
1324.319,-210.0,,
1324.334,-210.0,,
1324.349,-70.25,,
1324.364,-210.0,,
1324.379,-210.0,,
1324.394,-210.0,,
1324.409,-210.0,,
1324.424,-210.0,,
1324.439,-210.0,,
1324.454,-210.0,,
1324.469,-210.0,,
1324.484,-210.0,,
1324.499,-210.0,,
1324.514,-210.0,,
1324.529,-68.67,,
1324.544,-72.9,,
1324.559,-210.0,,
1324.574,-77.92,,
1324.589,-69.37,,
1324.604,-210.0,,
1324.619,-210.0,,
1324.634,-75.29,,
1324.649,-71.46,,
1324.664,-210.0,,
1324.679,-210.0,,
1324.694,-86.79,,
1324.709,-210.0,,
1324.724,-210.0,,
1324.739,-210.0,,
1324.754,-210.0,,
1324.769,-210.0,,
1324.784,-210.0,,
1324.799,-83.81,,
1324.814,-72.91,,
1324.829,-77.81,,
1324.844,-75.08,,
1324.859,-70.87,,
1324.874,-71.66,,
1324.889,-74.18,,
1324.904,-210.0,,
1324.919,-74.84,,
1324.934,-69.11,,
1324.949,-210.0,,
1324.964,-210.0,,
1324.979,-70.64,,
1324.994,-210.0,,
1325.009,-210.0,,
1325.024,-210.0,,
1325.039,-71.31,,
1325.054,-210.0,,
1325.069,-210.0,,
1325.084,-70.91,,
1325.099,-70.45,,
1325.114,-210.0,,
1325.129,-210.0,,
1325.144,-210.0,,
1325.159,-210.0,,
1325.174,-210.0,,
1325.189,-210.0,,
1325.204,-210.0,,
1325.219,-210.0,,
1325.234,-210.0,,
1325.25,-210.0,,
1325.264,-210.0,,
1325.279,-210.0,,
1325.294,-210.0,,
1325.309,-210.0,,
1325.324,-86.32,,
1325.339,-210.0,,
1325.354,-210.0,,
1325.37,-77.09,,
1325.385,-70.8,,
1325.4,-210.0,,
1325.414,-210.0,,
1325.429,-68.22,,
1325.444,-71.92,,
1325.459,-210.0,,
1325.474,-81.68,,
1325.49,-69.76,,
1325.505,-81.9,,
1325.52,-210.0,,
1325.535,-210.0,,
1325.549,-210.0,,
1325.564,-210.0,,
1325.579,-210.0,,
1325.594,-210.0,,
1325.609,-210.0,,
1325.625,-210.0,,
1325.64,-210.0,,
1325.655,-210.0,,
1325.67,-210.0,,
1325.685,-210.0,,
1325.699,-210.0,,
1325.714,-76.41,,
1325.729,-70.19,,
1325.745,-210.0,,
1325.76,-210.0,,
1325.775,-68.7,,
1325.79,-72.21,,
1325.805,-210.0,,
1325.82,-210.0,,
1325.834,-71.96,,
1325.849,-210.0,,
1325.865,-210.0,,
1325.88,-210.0,,
1325.895,-210.0,,
1325.91,-210.0,,
1325.925,-210.0,,
1325.94,-210.0,,
1325.955,-210.0,,
1325.97,-210.0,,
1325.984,-210.0,,
1326.0,-210.0,,
1326.015,-210.0,,
1326.03,-210.0,,
1326.045,-78.63,,
1326.06,-75.53,,
1326.075,-74.64,,
1326.09,-210.0,,
1326.105,-210.0,,
1326.12,-79.4,,
1326.135,-77.0,,
1326.15,-74.04,,
1326.165,-71.29,,
1326.18,-210.0,,
1326.195,-210.0,,
1326.21,-210.0,,
1326.225,-78.61,,
1326.24,-74.85,,
1326.255,-70.75,,
1326.27,-68.83,,
1326.285,-78.61,,
1326.3,-66.85,,
1326.315,-66.26,,
1326.33,-71.09,,
1326.345,-68.42,,
1326.36,-69.13,,
1326.375,-72.24,,
1326.39,-69.63,,
1326.405,-68.24,,
1326.42,-71.12,,
1326.435,-77.22,,
1326.45,-70.43,,
1326.465,-68.13,,
1326.48,-74.53,,
1326.495,-73.83,,
1326.51,-69.5,,
1326.525,-70.08,,
1326.54,-72.66,,
1326.555,-69.61,,
1326.57,-67.81,,
1326.585,-71.39,,
1326.6,-69.58,,
1326.615,-67.81,,
1326.63,-68.67,,
1326.645,-69.3,,
1326.66,-67.99,,
1326.675,-67.47,,
1326.69,-69.19,,
1326.705,-67.91,,
1326.72,-67.42,,
1326.735,-81.98,,
1326.75,-69.83,,
1326.765,-68.48,,
1326.78,-73.88,,
1326.795,-210.0,,
1326.81,-69.7,,
1326.825,-70.45,,
1326.84,-85.35,,
1326.855,-71.94,,
1326.87,-68.92,,
1326.885,-70.5,,
1326.9,-210.0,,
1326.915,-67.86,,
1326.93,-66.16,,
1326.945,-71.41,,
1326.96,-68.33,,
1326.975,-68.38,,
1326.99,-69.27,,
1327.005,-69.4,,
1327.02,-69.43,,
1327.035,-72.48,,
1327.05,-74.09,,
1327.065,-71.06,,
1327.08,-89.12,,
1327.095,-210.0,,
1327.11,-75.85,,
1327.125,-70.94,,
1327.14,-89.68,,
1327.155,-210.0,,
1327.17,-210.0,,
1327.185,-87.31,,
1327.2,-76.64,,
1327.215,-78.6,,
1327.23,-69.51,,
1327.245,-73.98,,
1327.26,-210.0,,
1327.275,-210.0,,
1327.29,-75.25,,
1327.305,-210.0,,
1327.32,-210.0,,
1327.335,-73.43,,
1327.35,-210.0,,
1327.365,-210.0,,
1327.38,-71.19,,
1327.395,-210.0,,
1327.41,-210.0,,
1327.425,-210.0,,
1327.44,-210.0,,
1327.455,-210.0,,
1327.47,-210.0,,
1327.485,-210.0,,
1327.5,-210.0,,
1327.515,-210.0,,
1327.53,-210.0,,
1327.545,-210.0,,
1327.56,-210.0,,
1327.575,-210.0,,
1327.59,-210.0,,
1327.605,-210.0,,
1327.62,-210.0,,
1327.635,-76.66,,
1327.65,-210.0,,
1327.665,-210.0,,
1327.68,-210.0,,
1327.695,-210.0,,
1327.71,-210.0,,
1327.725,-210.0,,
1327.74,-210.0,,
1327.755,-210.0,,
1327.77,-210.0,,
1327.785,-210.0,,
1327.8,-78.26,,
1327.815,-210.0,,
1327.83,-79.74,,
1327.845,-74.64,,
1327.86,-76.55,,
1327.875,-78.54,,
1327.89,-76.83,,
1327.905,-70.03,,
1327.92,-79.96,,
1327.935,-210.0,,
1327.95,-71.61,,
1327.965,-80.03,,
1327.98,-74.39,,
1327.995,-70.69,,
1328.01,-74.06,,
1328.025,-210.0,,
1328.04,-85.32,,
1328.055,-73.72,,
1328.07,-210.0,,
1328.085,-77.1,,
1328.1,-70.11,,
1328.115,-72.8,,
1328.13,-74.16,,
1328.145,-70.24,,
1328.16,-69.19,,
1328.175,-69.83,,
1328.19,-65.43,,
1328.205,-66.79,,
1328.22,-69.9,,
1328.235,-70.14,,
1328.25,-66.14,,
1328.265,-68.62,,
1328.28,-70.1,,
1328.295,-66.42,,
1328.31,-65.65,,
1328.325,-70.61,,
1328.34,-70.53,,
1328.355,-66.55,,
1328.37,-67.51,,
1328.385,-69.73,,
1328.4,-67.77,,
1328.415,-65.57,,
1328.43,-67.81,,
1328.445,-67.05,,
1328.46,-65.55,,
1328.475,-65.42,,
1328.49,-66.29,,
1328.505,-66.81,,
1328.52,-65.57,,
1328.535,-66.04,,
1328.55,-66.22,,
1328.565,-65.87,,
1328.58,-68.42,,
1328.595,-67.9,,
1328.61,-66.6,,
1328.625,-66.71,,
1328.64,-69.99,,
1328.655,-67.04,,
1328.67,-67.04,,
1328.685,-70.31,,
1328.7,-74.9,,
1328.715,-69.26,,
1328.73,-68.09,,
1328.745,-70.68,,
1328.76,-68.94,,
1328.775,-67.32,,
1328.79,-68.0,,
1328.805,-65.23,,
1328.82,-65.01,,
1328.835,-67.69,,
1328.85,-66.24,,
1328.865,-64.72,,
1328.88,-65.61,,
1328.895,-66.93,,
1328.91,-65.57,,
1328.925,-64.39,,
1328.94,-66.91,,
1328.955,-68.87,,
1328.97,-66.05,,
1328.985,-65.16,,
1329.0,-67.31,,
1329.015,-67.82,,
1329.03,-64.7,,
1329.045,-64.71,,
1329.06,-65.2,,
1329.075,-64.85,,
1329.09,-63.64,,
1329.105,-64.8,,
1329.12,-64.8,,
1329.135,-64.53,,
1329.15,-64.87,,
1329.165,-65.26,,
1329.18,-64.61,,
1329.195,-66.06,,
1329.21,-68.16,,
1329.225,-65.79,,
1329.24,-64.97,,
1329.255,-68.07,,
1329.27,-67.37,,
1329.285,-65.77,,
1329.3,-67.69,,
1329.315,-76.01,,
1329.33,-67.67,,
1329.345,-67.47,,
1329.36,-68.89,,
1329.375,-70.02,,
1329.39,-67.28,,
1329.405,-68.3,,
1329.42,-68.04,,
1329.435,-65.76,,
1329.45,-69.44,,
1329.465,-70.96,,
1329.48,-67.37,,
1329.495,-69.0,,
1329.51,-73.51,,
1329.525,-69.64,,
1329.54,-67.07,,
1329.555,-70.23,,
1329.57,-74.71,,
1329.585,-70.84,,
1329.6,-68.77,,
1329.615,-72.76,,
1329.63,-70.59,,
1329.645,-67.56,,
1329.66,-72.19,,
1329.675,-75.9,,
1329.69,-67.98,,
1329.705,-66.41,,
1329.72,-69.33,,
1329.735,-72.0,,
1329.75,-68.77,,
1329.765,-66.99,,
1329.78,-70.4,,
1329.795,-69.1,,
1329.81,-210.0,,
1329.825,-210.0,,
1329.84,-210.0,,
1329.855,-210.0,,
1329.87,-210.0,,
1329.885,-210.0,,
1329.9,-210.0,,
1329.915,-210.0,,
1329.93,-210.0,,
1329.945,-210.0,,
1329.96,-210.0,,
1329.975,-210.0,,
1329.99,-210.0,,
1330.005,-210.0,,
1330.02,-210.0,,
1330.035,-210.0,,
1330.05,-210.0,,
1330.065,-210.0,,
1330.08,-210.0,,
1330.095,-210.0,,
1330.11,-210.0,,
1330.125,-210.0,,
1330.14,-210.0,,
1330.155,-210.0,,
1330.17,-210.0,,
1330.185,-210.0,,
1330.2,-210.0,,
1330.215,-210.0,,
1330.23,-210.0,,
1330.245,-210.0,,
1330.26,-210.0,,
1330.275,-210.0,,
1330.29,-210.0,,
1330.305,-210.0,,
1330.32,-210.0,,
1330.335,-210.0,,
1330.35,-72.58,,
1330.365,-210.0,,
1330.38,-82.04,,
1330.395,-72.29,,
1330.41,-70.56,,
1330.425,-210.0,,
1330.44,-210.0,,
1330.455,-71.12,,
1330.47,-77.58,,
1330.485,-210.0,,
1330.5,-210.0,,
1330.515,-75.77,,
1330.53,-210.0,,
1330.545,-210.0,,
1330.56,-210.0,,
1330.575,-210.0,,
1330.59,-210.0,,
1330.605,-210.0,,
1330.62,-70.17,,
1330.635,-69.36,,
1330.65,-72.73,,
1330.665,-72.94,,
1330.68,-68.35,,
1330.695,-71.48,,
1330.71,-74.11,,
1330.725,-72.27,,
1330.74,-66.88,,
1330.755,-68.01,,
1330.77,-83.72,,
1330.785,-72.34,,
1330.8,-69.06,,
1330.815,-70.48,,
1330.83,-73.18,,
1330.845,-68.24,,
1330.86,-68.09,,
1330.875,-68.85,,
1330.89,-66.44,,
1330.905,-65.22,,
1330.92,-65.78,,
1330.935,-68.33,,
1330.95,-67.17,,
1330.965,-65.46,,
1330.98,-66.89,,
1330.995,-68.23,,
1331.01,-66.21,,
1331.025,-66.87,,
1331.04,-70.64,,
1331.055,-67.64,,
1331.07,-66.58,,
1331.085,-67.66,,
1331.1,-71.4,,
1331.115,-70.63,,
1331.13,-67.85,,
1331.145,-72.11,,
1331.16,-70.78,,
1331.175,-67.64,,
1331.19,-68.39,,
1331.205,-74.04,,
1331.22,-69.55,,
1331.235,-67.15,,
1331.25,-68.43,,
1331.265,-66.15,,
1331.28,-67.67,,
1331.295,-70.73,,
1331.31,-69.84,,
1331.325,-67.56,,
1331.34,-69.91,,
1331.355,-72.6,,
1331.37,-68.89,,
1331.385,-68.53,,
1331.4,-77.73,,
1331.415,-75.61,,
1331.43,-70.18,,
1331.445,-75.31,,
1331.46,-210.0,,
1331.475,-76.82,,
1331.49,-67.52,,
1331.505,-72.28,,
1331.52,-72.73,,
1331.535,-67.56,,
1331.55,-68.39,,
1331.565,-72.34,,
1331.58,-68.79,,
1331.595,-67.24,,
1331.61,-68.56,,
1331.625,-69.7,,
1331.64,-72.79,,
1331.655,-210.0,,
1331.67,-210.0,,
1331.685,-73.16,,
1331.7,-210.0,,
1331.715,-210.0,,
1331.73,-210.0,,
1331.745,-76.53,,
1331.76,-210.0,,
1331.775,-210.0,,
1331.79,-74.43,,
1331.805,-78.16,,
1331.82,-210.0,,
1331.835,-210.0,,
1331.85,-73.99,,
1331.865,-80.8,,
1331.88,-210.0,,
1331.895,-210.0,,
1331.91,-210.0,,
1331.925,-210.0,,
1331.94,-210.0,,
1331.955,-210.0,,
1331.97,-210.0,,
1331.985,-210.0,,
1332.0,-210.0,,
1332.015,-210.0,,
1332.03,-210.0,,
1332.045,-210.0,,
1332.06,-210.0,,
1332.075,-210.0,,
1332.09,-210.0,,
1332.105,-210.0,,
1332.12,-84.57,,
1332.135,-210.0,,
1332.15,-210.0,,
1332.165,-210.0,,
1332.18,-80.11,,
1332.195,-210.0,,
1332.21,-210.0,,
1332.225,-210.0,,
1332.24,-79.84,,
1332.255,-210.0,,
1332.27,-210.0,,
1332.285,-210.0,,
1332.3,-210.0,,
1332.315,-210.0,,
1332.33,-210.0,,
1332.345,-210.0,,
1332.36,-210.0,,
1332.375,-210.0,,
1332.39,-210.0,,
1332.405,-210.0,,
1332.42,-210.0,,
1332.435,-210.0,,
1332.45,-210.0,,
1332.465,-71.37,,
1332.48,-75.1,,
1332.495,-210.0,,
1332.51,-78.37,,
1332.525,-69.28,,
1332.54,-74.93,,
1332.555,-76.55,,
1332.57,-67.57,,
1332.585,-68.92,,
1332.6,-74.45,,
1332.615,-71.95,,
1332.63,-68.24,,
1332.645,-69.45,,
1332.66,-74.74,,
1332.675,-68.0,,
1332.69,-68.56,,
1332.705,-69.15,,
1332.72,-71.26,,
1332.735,-66.85,,
1332.75,-67.55,,
1332.765,-83.7,,
1332.78,-68.78,,
1332.795,-66.35,,
1332.81,-67.73,,
1332.825,-69.98,,
1332.84,-68.73,,
1332.855,-66.76,,
1332.87,-70.72,,
1332.885,-69.02,,
1332.9,-66.76,,
1332.915,-68.14,,
1332.93,-78.79,,
1332.945,-69.9,,
1332.96,-68.17,,
1332.975,-69.15,,
1332.99,-69.1,,
1333.005,-68.65,,
1333.02,-67.46,,
1333.035,-66.61,,
1333.05,-65.98,,
1333.065,-65.95,,
1333.08,-65.98,,
1333.095,-66.37,,
1333.11,-66.25,,
1333.125,-66.0,,
1333.141,-67.2,,
1333.155,-67.01,,
1333.17,-66.76,,
1333.185,-66.98,,
1333.2,-70.14,,
1333.215,-71.34,,
1333.23,-67.72,,
1333.245,-67.78,,
1333.26,-68.99,,
1333.276,-67.25,,
1333.29,-67.4,,
1333.305,-69.53,,
1333.32,-69.14,,
1333.335,-66.49,,
1333.35,-67.62,,
1333.365,-68.26,,
1333.38,-69.64,,
1333.396,-67.52,,
1333.411,-66.23,,
1333.426,-73.74,,
1333.44,-210.0,,
1333.455,-66.95,,
1333.47,-68.04,,
1333.485,-210.0,,
1333.5,-71.53,,
1333.516,-68.32,,
1333.531,-210.0,,
1333.546,-210.0,,
1333.561,-76.18,,
1333.575,-75.93,,
1333.59,-210.0,,
1333.605,-210.0,,
1333.62,-70.95,,
1333.635,-210.0,,
1333.651,-210.0,,
1333.666,-75.92,,
1333.681,-69.66,,
1333.696,-75.77,,
1333.711,-210.0,,
1333.725,-70.03,,
1333.74,-70.06,,
1333.755,-210.0,,
1333.771,-210.0,,
1333.786,-68.16,,
1333.801,-72.49,,
1333.816,-210.0,,
1333.831,-210.0,,
1333.846,-67.72,,
1333.86,-93.18,,
1333.875,-210.0,,
1333.891,-68.93,,
1333.906,-71.33,,
1333.921,-210.0,,
1333.936,-69.78,,
1333.951,-66.15,,
1333.966,-68.43,,
1333.981,-78.47,,
1333.996,-68.43,,
1334.01,-65.64,,
1334.026,-69.23,,
1334.041,-77.71,,
1334.056,-68.18,,
1334.071,-66.72,,
1334.086,-76.14,,
1334.101,-70.0,,
1334.116,-66.54,,
1334.131,-68.93,,
1334.146,-210.0,,
1334.161,-67.87,,
1334.176,-65.64,,
1334.191,-71.14,,
1334.206,-69.4,,
1334.221,-64.28,,
1334.236,-65.19,,
1334.251,-68.08,,
1334.266,-66.52,,
1334.281,-64.27,,
1334.296,-65.47,,
1334.311,-66.87,,
1334.326,-63.88,,
1334.341,-64.38,,
1334.356,-66.25,,
1334.371,-66.78,,
1334.386,-63.55,,
1334.401,-64.09,,
1334.416,-67.3,,
1334.431,-65.74,,
1334.446,-63.64,,
1334.461,-66.24,,
1334.476,-68.23,,
1334.491,-64.73,,
1334.506,-64.94,,
1334.521,-66.84,,
1334.536,-65.26,,
1334.551,-63.53,,
1334.566,-64.35,,
1334.581,-66.34,,
1334.596,-64.55,,
1334.611,-62.99,,
1334.626,-65.26,,
1334.641,-66.87,,
1334.656,-63.93,,
1334.671,-64.24,,
1334.686,-67.64,,
1334.701,-65.81,,
1334.716,-63.93,,
1334.731,-65.42,,
1334.746,-67.64,,
1334.761,-64.45,,
1334.776,-63.64,,
1334.791,-66.41,,
1334.806,-67.09,,
1334.821,-64.19,,
1334.836,-64.38,,
1334.851,-68.1,,
1334.866,-65.51,,
1334.881,-64.07,,
1334.896,-66.0,,
1334.911,-68.32,,
1334.926,-64.91,,
1334.941,-64.68,,
1334.956,-68.42,,
1334.971,-68.68,,
1334.986,-65.97,,
1335.001,-65.71,,
1335.016,-70.99,,
1335.031,-66.73,,
1335.046,-65.02,,
1335.061,-67.53,,
1335.076,-69.54,,
1335.091,-65.65,,
1335.106,-65.54,,
1335.121,-67.97,,
1335.136,-67.67,,
1335.151,-64.34,,
1335.166,-65.39,,
1335.181,-70.62,,
1335.196,-66.61,,
1335.211,-64.81,,
1335.226,-67.72,,
1335.241,-69.61,,
1335.256,-65.07,,
1335.271,-65.49,,
1335.286,-72.32,,
1335.301,-67.48,,
1335.316,-65.05,,
1335.331,-68.99,,
1335.346,-71.44,,
1335.361,-66.3,,
1335.376,-65.58,,
1335.391,-72.53,,
1335.406,-71.26,,
1335.421,-67.87,,
1335.436,-68.17,,
1335.451,-67.46,,
1335.466,-65.72,,
1335.481,-66.98,,
1335.496,-68.44,,
1335.511,-66.86,,
1335.526,-65.97,,
1335.541,-69.11,,
1335.556,-70.61,,
1335.571,-68.28,,
1335.586,-67.7,,
1335.601,-69.52,,
1335.616,-69.21,,
1335.631,-67.68,,
1335.646,-69.09,,
1335.661,-72.84,,
1335.676,-70.71,,
1335.691,-67.49,,
1335.706,-71.44,,
1335.721,-71.19,,
1335.736,-69.34,,
1335.751,-68.53,,
1335.766,-69.13,,
1335.781,-68.66,,
1335.796,-66.51,,
1335.811,-68.62,,
1335.826,-67.98,,
1335.841,-67.41,,
1335.856,-66.47,,
1335.871,-71.03,,
1335.886,-68.72,,
1335.901,-67.17,,
1335.916,-66.66,,
1335.931,-66.93,,
1335.946,-67.26,,
1335.961,-66.84,,
1335.976,-68.43,,
1335.991,-67.77,,
1336.006,-67.97,,
1336.021,-67.97,,
1336.036,-70.23,,
1336.051,-69.58,,
1336.066,-66.76,,
1336.081,-67.54,,
1336.096,-68.18,,
1336.111,-68.16,,
1336.126,-67.92,,
1336.141,-69.54,,
1336.156,-68.85,,
1336.171,-68.6,,
1336.186,-68.18,,
1336.201,-68.07,,
1336.216,-68.75,,
1336.231,-67.35,,
1336.246,-66.98,,
1336.261,-69.71,,
1336.276,-70.08,,
1336.291,-67.39,,
1336.306,-70.95,,
1336.321,-70.41,,
1336.336,-68.02,,
1336.351,-70.1,,
1336.366,-70.91,,
1336.381,-69.36,,
1336.396,-67.67,,
1336.411,-69.63,,
1336.426,-67.84,,
1336.441,-65.64,,
1336.456,-68.87,,
1336.471,-210.0,,
1336.486,-67.67,,
1336.501,-66.32,,
1336.516,-70.33,,
1336.531,-72.08,,
1336.546,-65.67,,
1336.561,-65.84,,
1336.576,-71.26,,
1336.591,-68.59,,
1336.606,-66.26,,
1336.621,-71.14,,
1336.636,-210.0,,
1336.651,-67.11,,
1336.666,-66.0,,
1336.681,-72.69,,
1336.696,-70.37,,
1336.711,-65.33,,
1336.726,-67.46,,
1336.741,-69.37,,
1336.756,-66.14,,
1336.771,-65.85,,
1336.786,-70.94,,
1336.801,-73.07,,
1336.816,-66.37,,
1336.831,-67.77,,
1336.846,-210.0,,
1336.861,-69.42,,
1336.876,-65.93,,
1336.891,-71.34,,
1336.906,-75.12,,
1336.921,-67.14,,
1336.936,-67.72,,
1336.951,-77.9,,
1336.966,-69.55,,
1336.981,-65.2,,
1336.996,-66.98,,
1337.011,-69.7,,
1337.026,-65.45,,
1337.041,-64.34,,
1337.056,-66.75,,
1337.071,-68.05,,
1337.086,-65.01,,
1337.101,-65.23,,
1337.116,-68.86,,
1337.131,-65.66,,
1337.146,-63.61,,
1337.161,-65.48,,
1337.176,-67.22,,
1337.191,-64.69,,
1337.206,-63.89,,
1337.221,-67.36,,
1337.236,-66.79,,
1337.251,-64.68,,
1337.266,-66.06,,
1337.281,-67.06,,
1337.296,-64.83,,
1337.311,-63.61,,
1337.326,-65.3,,
1337.341,-65.48,,
1337.356,-62.96,,
1337.371,-63.01,,
1337.386,-64.97,,
1337.401,-64.06,,
1337.416,-62.69,,
1337.431,-63.39,,
1337.446,-65.69,,
1337.461,-64.35,,
1337.476,-63.12,,
1337.491,-64.72,,
1337.506,-66.58,,
1337.521,-64.19,,
1337.536,-63.2,,
1337.551,-65.37,,
1337.566,-65.51,,
1337.581,-63.15,,
1337.596,-63.2,,
1337.611,-65.09,,
1337.626,-63.3,,
1337.641,-62.55,,
1337.656,-64.08,,
1337.671,-65.2,,
1337.686,-62.86,,
1337.701,-63.1,,
1337.716,-65.27,,
1337.731,-64.72,,
1337.746,-63.22,,
1337.761,-64.92,,
1337.776,-67.25,,
1337.791,-64.36,,
1337.806,-64.36,,
1337.821,-66.66,,
1337.836,-66.19,,
1337.851,-63.68,,
1337.866,-63.91,,
1337.881,-65.9,,
1337.896,-63.59,,
1337.911,-62.87,,
1337.926,-64.66,,
1337.941,-65.06,,
1337.956,-63.13,,
1337.971,-63.96,,
1337.986,-67.8,,
1338.001,-65.83,,
1338.016,-64.22,,
1338.031,-66.24,,
1338.046,-69.3,,
1338.061,-65.31,,
1338.076,-65.18,,
1338.091,-68.21,,
1338.106,-69.8,,
1338.121,-64.95,,
1338.136,-66.48,,
1338.151,-68.88,,
1338.166,-65.72,,
1338.181,-65.53,,
1338.196,-68.42,,
1338.211,-67.88,,
1338.226,-64.59,,
1338.241,-66.98,,
1338.256,-68.8,,
1338.271,-65.54,,
1338.286,-65.3,,
1338.301,-69.91,,
1338.316,-68.51,,
1338.331,-66.3,,
1338.346,-68.38,,
1338.361,-210.0,,
1338.376,-80.48,,
1338.391,-68.88,,
1338.406,-210.0,,
1338.421,-210.0,,
1338.436,-75.96,,
1338.451,-70.28,,
1338.466,-210.0,,
1338.481,-210.0,,
1338.496,-71.88,,
1338.511,-71.29,,
1338.526,-72.44,,
1338.541,-75.65,,
1338.556,-68.67,,
1338.571,-74.38,,
1338.586,-210.0,,
1338.601,-74.79,,
1338.616,-69.3,,
1338.631,-210.0,,
1338.646,-210.0,,
1338.661,-70.59,,
1338.676,-71.43,,
1338.691,-210.0,,
1338.706,-210.0,,
1338.721,-69.64,,
1338.736,-78.75,,
1338.751,-210.0,,
1338.766,-70.5,,
1338.781,-68.17,,
1338.796,-210.0,,
1338.811,-74.53,,
1338.826,-66.9,,
1338.841,-67.21,,
1338.856,-71.25,,
1338.871,-69.78,,
1338.886,-66.07,,
1338.901,-71.82,,
1338.916,-210.0,,
1338.931,-68.74,,
1338.946,-68.17,,
1338.961,-210.0,,
1338.976,-74.6,,
1338.991,-66.96,,
1339.006,-69.81,,
1339.021,-78.99,,
1339.036,-69.35,,
1339.051,-67.77,,
1339.066,-83.37,,
1339.081,-75.99,,
1339.096,-68.64,,
1339.111,-67.28,,
1339.126,-74.94,,
1339.141,-73.47,,
1339.156,-210.0,,
1339.171,-210.0,,
1339.186,-210.0,,
1339.201,-71.64,,
1339.216,-210.0,,
1339.231,-210.0,,
1339.246,-71.01,,
1339.261,-210.0,,
1339.276,-210.0,,
1339.291,-210.0,,
1339.306,-71.28,,
1339.321,-210.0,,
1339.336,-210.0,,
1339.351,-73.32,,
1339.366,-81.38,,
1339.381,-210.0,,
1339.396,-74.51,,
1339.411,-68.58,,
1339.426,-78.76,,
1339.441,-210.0,,
1339.456,-72.27,,
1339.471,-69.85,,
1339.486,-76.9,,
1339.501,-75.01,,
1339.516,-68.91,,
1339.531,-77.66,,
1339.546,-210.0,,
1339.561,-210.0,,
1339.576,-71.18,,
1339.591,-210.0,,
1339.606,-210.0,,
1339.621,-210.0,,
1339.636,-210.0,,
1339.651,-210.0,,
1339.666,-210.0,,
1339.681,-72.02,,
1339.696,-81.63,,
1339.711,-210.0,,
1339.726,-210.0,,
1339.741,-81.58,,
1339.756,-210.0,,
1339.771,-210.0,,
1339.786,-210.0,,
1339.801,-210.0,,
1339.816,-210.0,,
1339.831,-210.0,,
1339.846,-210.0,,
1339.861,-210.0,,
1339.876,-210.0,,
1339.891,-210.0,,
1339.906,-210.0,,
1339.921,-210.0,,
1339.936,-210.0,,
1339.951,-210.0,,
1339.966,-210.0,,
1339.981,-210.0,,
1339.996,-210.0,,
1340.011,-210.0,,
1340.026,-82.03,,
1340.041,-210.0,,
1340.056,-210.0,,
1340.071,-210.0,,
1340.086,-72.49,,
1340.101,-210.0,,
1340.116,-210.0,,
1340.131,-75.3,,
1340.146,-72.51,,
1340.161,-70.3,,
1340.176,-72.67,,
1340.191,-71.89,,
1340.206,-75.64,,
1340.221,-210.0,,
1340.236,-76.59,,
1340.251,-210.0,,
1340.266,-75.3,,
1340.281,-210.0,,
1340.296,-210.0,,
1340.311,-75.17,,
1340.326,-81.43,,
1340.341,-76.94,,
1340.356,-77.07,,
1340.371,-69.83,,
1340.386,-72.2,,
1340.401,-74.1,,
1340.416,-74.13,,
1340.431,-73.72,,
1340.446,-78.78,,
1340.461,-210.0,,
1340.476,-71.94,,
1340.491,-210.0,,
1340.506,-210.0,,
1340.521,-210.0,,
1340.536,-70.9,,
1340.551,-73.37,,
1340.566,-71.47,,
1340.581,-210.0,,
1340.596,-80.92,,
1340.611,-70.33,,
1340.626,-78.56,,
1340.641,-83.39,,
1340.656,-69.94,,
1340.671,-70.73,,
1340.686,-210.0,,
1340.701,-210.0,,
1340.716,-73.4,,
1340.731,-210.0,,
1340.746,-210.0,,
1340.761,-70.27,,
1340.776,-69.44,,
1340.791,-210.0,,
1340.806,-210.0,,
1340.821,-67.74,,
1340.836,-70.35,,
1340.851,-210.0,,
1340.866,-73.05,,
1340.881,-71.09,,
1340.896,-67.84,,
1340.911,-68.83,,
1340.926,-71.84,,
1340.941,-69.17,,
1340.956,-67.65,,
1340.971,-70.35,,
1340.986,-71.29,,
1341.001,-210.0,,
1341.016,-69.61,,
1341.031,-69.73,,
1341.046,-210.0,,
1341.061,-91.22,,
1341.076,-71.11,,
1341.091,-73.79,,
1341.106,-210.0,,
1341.121,-80.33,,
1341.136,-74.19,,
1341.151,-210.0,,
1341.167,-210.0,,
1341.181,-76.26,,
1341.196,-81.18,,
1341.211,-210.0,,
1341.226,-80.21,,
1341.241,-70.35,,
1341.256,-71.56,,
1341.271,-210.0,,
1341.286,-72.92,,
1341.302,-69.23,,
1341.316,-210.0,,
1341.331,-210.0,,
1341.346,-72.8,,
1341.361,-77.62,,
1341.376,-210.0,,
1341.391,-210.0,,
1341.406,-210.0,,
1341.422,-210.0,,
1341.437,-210.0,,
1341.452,-79.29,,
1341.466,-210.0,,
1341.481,-210.0,,
1341.496,-210.0,,
1341.511,-74.67,,
1341.526,-210.0,,
1341.542,-210.0,,
1341.557,-210.0,,
1341.572,-210.0,,
1341.587,-210.0,,
1341.601,-78.73,,
1341.616,-210.0,,
1341.631,-210.0,,
1341.646,-210.0,,
1341.661,-210.0,,
1341.677,-210.0,,
1341.692,-210.0,,
1341.707,-210.0,,
1341.722,-210.0,,
1341.737,-210.0,,
1341.751,-210.0,,
1341.766,-210.0,,
1341.781,-210.0,,
1341.797,-210.0,,
1341.812,-210.0,,
1341.827,-210.0,,
1341.842,-210.0,,
1341.857,-210.0,,
1341.872,-210.0,,
1341.887,-210.0,,
1341.901,-210.0,,
1341.917,-210.0,,
1341.932,-210.0,,
1341.947,-210.0,,
1341.962,-210.0,,
1341.977,-210.0,,
1341.992,-210.0,,
1342.007,-210.0,,
1342.022,-210.0,,
1342.036,-210.0,,
1342.052,-210.0,,
1342.067,-210.0,,
1342.082,-210.0,,
1342.097,-210.0,,
1342.112,-210.0,,
1342.127,-210.0,,
1342.142,-210.0,,
1342.157,-210.0,,
1342.172,-210.0,,
1342.187,-210.0,,
1342.202,-210.0,,
1342.217,-210.0,,
1342.232,-210.0,,
1342.247,-210.0,,
1342.262,-210.0,,
1342.277,-210.0,,
1342.292,-210.0,,
1342.307,-210.0,,
1342.322,-210.0,,
1342.337,-210.0,,
1342.352,-210.0,,
1342.367,-210.0,,
1342.382,-210.0,,
1342.397,-210.0,,
1342.412,-210.0,,
1342.427,-210.0,,
1342.442,-210.0,,
1342.457,-210.0,,
1342.472,-210.0,,
1342.487,-210.0,,
1342.502,-210.0,,
1342.517,-210.0,,
1342.532,-210.0,,
1342.547,-210.0,,
1342.562,-210.0,,
1342.577,-210.0,,
1342.592,-210.0,,
1342.607,-210.0,,
1342.622,-210.0,,
1342.637,-210.0,,
1342.652,-210.0,,
1342.667,-210.0,,
1342.682,-210.0,,
1342.697,-210.0,,
1342.712,-210.0,,
1342.727,-210.0,,
1342.742,-210.0,,
1342.757,-72.34,,
1342.772,-73.48,,
1342.787,-210.0,,
1342.802,-210.0,,
1342.817,-72.53,,
1342.832,-210.0,,
1342.847,-210.0,,
1342.862,-75.25,,
1342.877,-71.07,,
1342.892,-210.0,,
1342.907,-210.0,,
1342.922,-210.0,,
1342.937,-210.0,,
1342.952,-210.0,,
1342.967,-210.0,,
1342.982,-86.7,,
1342.997,-210.0,,
1343.012,-210.0,,
1343.027,-78.41,,
1343.042,-70.89,,
1343.057,-210.0,,
1343.072,-210.0,,
1343.087,-210.0,,
1343.102,-210.0,,
1343.117,-76.55,,
1343.132,-72.62,,
1343.147,-210.0,,
1343.162,-210.0,,
1343.177,-73.93,,
1343.192,-210.0,,
1343.207,-210.0,,
1343.222,-210.0,,
1343.237,-210.0,,
1343.252,-210.0,,
1343.267,-210.0,,
1343.282,-210.0,,
1343.297,-210.0,,
1343.312,-210.0,,
1343.327,-210.0,,
1343.342,-73.54,,
1343.357,-210.0,,
1343.372,-210.0,,
1343.387,-210.0,,
1343.402,-73.39,,
1343.417,-210.0,,
1343.432,-210.0,,
1343.447,-73.69,,
1343.462,-80.48,,
1343.477,-210.0,,
1343.492,-210.0,,
1343.507,-71.62,,
1343.522,-210.0,,
1343.537,-210.0,,
1343.552,-80.33,,
1343.567,-210.0,,
1343.582,-210.0,,
1343.597,-210.0,,
1343.612,-210.0,,
1343.627,-210.0,,
1343.642,-210.0,,
1343.657,-210.0,,
1343.672,-210.0,,
1343.687,-210.0,,
1343.702,-210.0,,
1343.717,-210.0,,
1343.732,-210.0,,
1343.747,-210.0,,
1343.762,-210.0,,
1343.777,-210.0,,
1343.792,-210.0,,
1343.807,-210.0,,
1343.822,-210.0,,
1343.837,-210.0,,
1343.852,-210.0,,
1343.867,-210.0,,
1343.882,-210.0,,
1343.897,-210.0,,
1343.912,-210.0,,
1343.927,-210.0,,
1343.942,-210.0,,
1343.957,-210.0,,
1343.972,-210.0,,
1343.987,-210.0,,
1344.002,-210.0,,
1344.017,-210.0,,
1344.032,-210.0,,
1344.047,-210.0,,
1344.062,-210.0,,
1344.077,-210.0,,
1344.092,-210.0,,
1344.107,-210.0,,
1344.122,-210.0,,
1344.137,-210.0,,
1344.152,-210.0,,
1344.167,-210.0,,
1344.182,-210.0,,
1344.197,-210.0,,
1344.212,-210.0,,
1344.227,-210.0,,
1344.242,-210.0,,
1344.257,-210.0,,
1344.272,-210.0,,
1344.287,-210.0,,
1344.302,-210.0,,
1344.317,-210.0,,
1344.332,-210.0,,
1344.347,-210.0,,
1344.362,-210.0,,
1344.377,-210.0,,
1344.392,-210.0,,
1344.407,-210.0,,
1344.422,-210.0,,
1344.437,-210.0,,
1344.452,-210.0,,
1344.467,-210.0,,
1344.482,-210.0,,
1344.497,-73.21,,
1344.512,-210.0,,
1344.527,-210.0,,
1344.542,-210.0,,
1344.557,-210.0,,
1344.572,-72.53,,
1344.587,-72.14,,
1344.602,-68.89,,
1344.617,-70.07,,
1344.632,-70.91,,
1344.647,-72.31,,
1344.662,-70.92,,
1344.677,-70.82,,
1344.692,-69.75,,
1344.707,-69.86,,
1344.722,-70.43,,
1344.737,-72.72,,
1344.752,-210.0,,
1344.767,-72.91,,
1344.782,-73.99,,
1344.797,-72.63,,
1344.812,-66.93,,
1344.827,-67.42,,
1344.842,-74.25,,
1344.857,-67.33,,
1344.872,-66.02,,
1344.887,-68.17,,
1344.902,-69.84,,
1344.917,-65.18,,
1344.932,-65.76,,
1344.947,-65.06,,
1344.962,-65.32,,
1344.977,-65.22,,
1344.992,-65.44,,
1345.007,-64.91,,
1345.022,-64.78,,
1345.037,-65.06,,
1345.052,-64.53,,
1345.067,-64.72,,
1345.082,-64.4,,
1345.097,-64.34,,
1345.112,-63.97,,
1345.127,-64.35,,
1345.142,-63.73,,
1345.157,-64.28,,
1345.172,-64.03,,
1345.187,-64.05,,
1345.202,-63.79,,
1345.217,-65.25,,
1345.232,-63.19,,
1345.247,-63.79,,
1345.262,-65.47,,
1345.277,-64.26,,
1345.292,-63.18,,
1345.307,-64.67,,
1345.322,-65.55,,
1345.337,-63.52,,
1345.352,-63.08,,
1345.367,-65.22,,
1345.382,-64.96,,
1345.397,-64.94,,
1345.412,-65.73,,
1345.427,-65.7,,
1345.442,-65.07,,
1345.457,-65.28,,
1345.472,-64.94,,
1345.487,-65.25,,
1345.502,-66.0,,
1345.517,-65.78,,
1345.532,-65.53,,
1345.547,-65.25,,
1345.562,-64.98,,
1345.577,-65.55,,
1345.592,-66.19,,
1345.607,-65.39,,
1345.622,-68.57,,
1345.637,-68.7,,
1345.652,-65.66,,
1345.667,-66.75,,
1345.682,-72.06,,
1345.697,-67.42,,
1345.712,-65.66,,
1345.727,-67.57,,
1345.742,-69.78,,
1345.757,-64.28,,
1345.772,-64.65,,
1345.787,-66.64,,
1345.802,-66.68,,
1345.817,-66.07,,
1345.832,-69.84,,
1345.847,-70.16,,
1345.862,-67.84,,
1345.877,-67.47,,
1345.892,-75.27,,
1345.907,-66.45,,
1345.922,-68.07,,
1345.937,-210.0,,
1345.952,-70.67,,
1345.967,-67.1,,
1345.982,-71.59,,
1345.997,-78.2,,
1346.012,-67.18,,
1346.027,-67.43,,
1346.042,-210.0,,
1346.057,-210.0,,
1346.072,-66.81,,
1346.087,-69.74,,
1346.102,-210.0,,
1346.117,-74.7,,
1346.132,-67.84,,
1346.147,-76.99,,
1346.162,-210.0,,
1346.177,-67.99,,
1346.192,-71.85,,
1346.207,-84.52,,
1346.222,-68.4,,
1346.237,-210.0,,
1346.252,-210.0,,
1346.267,-77.7,,
1346.282,-74.57,,
1346.297,-210.0,,
1346.312,-210.0,,
1346.327,-73.18,,
1346.342,-76.72,,
1346.357,-210.0,,
1346.372,-210.0,,
1346.387,-69.51,,
1346.402,-210.0,,
1346.417,-210.0,,
1346.432,-80.32,,
1346.447,-73.07,,
1346.462,-210.0,,
1346.477,-210.0,,
1346.492,-210.0,,
1346.507,-210.0,,
1346.522,-210.0,,
1346.537,-210.0,,
1346.552,-210.0,,
1346.567,-210.0,,
1346.582,-210.0,,
1346.597,-210.0,,
1346.612,-210.0,,
1346.627,-210.0,,
1346.642,-72.57,,
1346.657,-210.0,,
1346.672,-210.0,,
1346.687,-72.12,,
1346.702,-69.46,,
1346.717,-210.0,,
1346.732,-210.0,,
1346.747,-70.44,,
1346.762,-210.0,,
1346.777,-210.0,,
1346.792,-210.0,,
1346.807,-71.16,,
1346.822,-210.0,,
1346.837,-210.0,,
1346.852,-73.07,,
1346.867,-78.62,,
1346.882,-210.0,,
1346.897,-210.0,,
1346.912,-210.0,,
1346.927,-210.0,,
1346.942,-210.0,,
1346.957,-76.06,,
1346.972,-210.0,,
1346.987,-210.0,,
1347.002,-74.02,,
1347.017,-210.0,,
1347.032,-210.0,,
1347.047,-76.88,,
1347.062,-68.08,,
1347.077,-210.0,,
1347.092,-210.0,,
1347.107,-67.05,,
1347.122,-70.93,,
1347.137,-210.0,,
1347.152,-210.0,,
1347.167,-67.35,,
1347.182,-210.0,,
1347.197,-72.61,,
1347.212,-68.66,,
1347.227,-70.43,,
1347.242,-72.46,,
1347.257,-66.47,,
1347.272,-67.12,,
1347.287,-69.17,,
1347.302,-67.65,,
1347.317,-65.78,,
1347.332,-80.29,,
1347.347,-74.08,,
1347.362,-67.11,,
1347.377,-69.86,,
1347.392,-210.0,,
1347.407,-70.16,,
1347.422,-68.38,,
1347.437,-74.04,,
1347.452,-210.0,,
1347.467,-67.87,,
1347.482,-69.27,,
1347.497,-72.14,,
1347.512,-67.45,,
1347.527,-66.81,,
1347.542,-70.91,,
1347.557,-68.43,,
1347.572,-66.5,,
1347.587,-68.41,,
1347.602,-70.3,,
1347.617,-66.88,,
1347.632,-66.75,,
1347.647,-210.0,,
1347.662,-72.91,,
1347.677,-66.2,,
1347.692,-74.68,,
1347.707,-210.0,,
1347.722,-71.23,,
1347.737,-70.19,,
1347.752,-210.0,,
1347.767,-210.0,,
1347.782,-69.5,,
1347.797,-210.0,,
1347.812,-210.0,,
1347.827,-72.24,,
1347.842,-69.93,,
1347.857,-210.0,,
1347.872,-75.52,,
1347.887,-70.01,,
1347.902,-210.0,,
1347.917,-69.72,,
1347.932,-67.3,,
1347.947,-72.56,,
1347.962,-210.0,,
1347.977,-67.69,,
1347.992,-68.75,,
1348.007,-210.0,,
1348.022,-76.52,,
1348.037,-68.92,,
1348.052,-210.0,,
1348.067,-210.0,,
1348.082,-210.0,,
1348.097,-210.0,,
1348.112,-210.0,,
1348.127,-210.0,,
1348.142,-210.0,,
1348.157,-210.0,,
1348.172,-210.0,,
1348.187,-210.0,,
1348.202,-210.0,,
1348.217,-210.0,,
1348.232,-210.0,,
1348.247,-210.0,,
1348.262,-210.0,,
1348.277,-210.0,,
1348.292,-210.0,,
1348.307,-210.0,,
1348.322,-210.0,,
1348.337,-72.51,,
1348.352,-210.0,,
1348.367,-210.0,,
1348.382,-80.58,,
1348.397,-70.87,,
1348.412,-81.53,,
1348.427,-70.98,,
1348.442,-69.29,,
1348.457,-70.57,,
1348.472,-70.0,,
1348.487,-72.0,,
1348.502,-68.78,,
1348.517,-72.58,,
1348.532,-72.14,,
1348.547,-68.97,,
1348.562,-69.07,,
1348.577,-71.2,,
1348.592,-72.46,,
1348.607,-73.51,,
1348.622,-70.14,,
1348.637,-72.32,,
1348.652,-68.97,,
1348.667,-74.34,,
1348.682,-75.12,,
1348.697,-68.28,,
1348.712,-69.95,,
1348.727,-69.2,,
1348.742,-67.33,,
1348.757,-65.38,,
1348.772,-67.21,,
1348.787,-68.01,,
1348.802,-65.76,,
1348.817,-64.87,,
1348.832,-67.38,,
1348.847,-66.57,,
1348.862,-66.61,,
1348.877,-71.33,,
1348.892,-67.98,,
1348.907,-65.58,,
1348.922,-70.06,,
1348.937,-68.94,,
1348.952,-66.72,,
1348.967,-68.98,,
1348.982,-76.71,,
1348.997,-69.0,,
1349.012,-65.17,,
1349.027,-68.3,,
1349.042,-70.65,,
1349.057,-65.6,,
1349.072,-65.59,,
1349.087,-69.13,,
1349.102,-65.2,,
1349.117,-64.8,,
1349.132,-69.37,,
1349.147,-68.46,,
1349.162,-65.94,,
1349.177,-72.07,,
1349.193,-73.65,,
1349.207,-66.09,,
1349.222,-67.5,,
1349.237,-73.96,,
1349.252,-70.69,,
1349.267,-66.47,,
1349.282,-72.61,,
1349.297,-76.13,,
1349.313,-67.32,,
1349.328,-75.32,,
1349.343,-210.0,,
1349.357,-67.9,,
1349.372,-67.23,,
1349.387,-77.45,,
1349.402,-76.01,,
1349.417,-68.73,,
1349.432,-75.96,,
1349.448,-210.0,,
1349.463,-69.81,,
1349.478,-210.0,,
1349.492,-210.0,,
1349.507,-210.0,,
1349.522,-73.66,,
1349.537,-210.0,,
1349.552,-210.0,,
1349.568,-210.0,,
1349.583,-210.0,,
1349.598,-210.0,,
1349.613,-210.0,,
1349.628,-89.05,,
1349.642,-210.0,,
1349.657,-210.0,,
1349.672,-74.92,,
1349.688,-210.0,,
1349.703,-210.0,,
1349.718,-70.23,,
1349.733,-74.36,,
1349.748,-210.0,,
1349.763,-210.0,,
1349.777,-70.37,,
1349.792,-88.33,,
1349.807,-210.0,,
1349.823,-70.19,,
1349.838,-68.74,,
1349.853,-210.0,,
1349.868,-73.15,,
1349.883,-66.74,,
1349.898,-71.56,,
1349.913,-210.0,,
1349.927,-70.91,,
1349.943,-210.0,,
1349.958,-210.0,,
1349.973,-71.87,,
1349.988,-70.26,,
1350.003,-210.0,,
1350.018,-210.0,,
1350.033,-71.43,,
1350.048,-78.64,,
1350.063,-210.0,,
1350.078,-74.66,,
1350.093,-70.13,,
1350.108,-210.0,,
1350.123,-210.0,,
1350.138,-68.9,,
1350.153,-69.51,,
1350.168,-68.65,,
1350.183,-66.57,,
1350.198,-69.34,,
1350.213,-70.56,,
1350.228,-66.1,,
1350.243,-65.57,,
1350.258,-67.45,,
1350.273,-67.32,,
1350.288,-65.34,,
1350.303,-67.01,,
1350.318,-69.11,,
1350.333,-66.64,,
1350.348,-65.96,,
1350.363,-69.38,,
1350.378,-71.67,,
1350.393,-70.77,,
1350.408,-72.97,,
1350.423,-70.23,,
1350.438,-72.27,,
1350.453,-70.79,,
1350.468,-210.0,,
1350.483,-68.3,,
1350.498,-67.06,,
1350.513,-72.26,,
1350.528,-70.98,,
1350.543,-66.01,,
1350.558,-68.11,,
1350.573,-70.31,,
1350.588,-66.73,,
1350.603,-65.47,,
1350.618,-68.55,,
1350.633,-69.71,,
1350.648,-70.21,,
1350.663,-68.99,,
1350.678,-69.4,,
1350.693,-70.54,,
1350.708,-210.0,,
1350.723,-210.0,,
1350.738,-210.0,,
1350.753,-210.0,,
1350.768,-210.0,,
1350.783,-210.0,,
1350.798,-210.0,,
1350.813,-210.0,,
1350.828,-210.0,,
1350.843,-210.0,,
1350.858,-210.0,,
1350.873,-210.0,,
1350.888,-210.0,,
1350.903,-210.0,,
1350.918,-210.0,,
1350.933,-210.0,,
1350.948,-210.0,,
1350.963,-210.0,,
1350.978,-210.0,,
1350.993,-210.0,,
1351.008,-210.0,,
1351.023,-210.0,,
1351.038,-210.0,,
1351.053,-210.0,,
1351.068,-210.0,,
1351.083,-210.0,,
1351.098,-210.0,,
1351.113,-210.0,,
1351.128,-210.0,,
1351.143,-210.0,,
1351.158,-210.0,,
1351.173,-210.0,,
1351.188,-210.0,,
1351.203,-210.0,,
1351.218,-103.16,,
1351.233,-210.0,,
1351.248,-210.0,,
1351.263,-210.0,,
1351.278,-210.0,,
1351.293,-210.0,,
1351.308,-210.0,,
1351.323,-210.0,,
1351.338,-210.0,,
1351.353,-210.0,,
1351.368,-210.0,,
1351.383,-210.0,,
1351.398,-210.0,,
1351.413,-82.68,,
1351.428,-210.0,,
1351.443,-210.0,,
1351.458,-210.0,,
1351.473,-73.94,,
1351.488,-210.0,,
1351.503,-210.0,,
1351.518,-72.37,,
1351.533,-210.0,,
1351.548,-210.0,,
1351.563,-210.0,,
1351.578,-210.0,,
1351.593,-210.0,,
1351.608,-210.0,,
1351.623,-210.0,,
1351.638,-210.0,,
1351.653,-210.0,,
1351.668,-210.0,,
1351.683,-210.0,,
1351.698,-210.0,,
1351.713,-75.6,,
1351.728,-210.0,,
1351.743,-210.0,,
1351.758,-76.82,,
1351.773,-67.74,,
1351.788,-210.0,,
1351.803,-210.0,,
1351.818,-70.6,,
1351.833,-74.16,,
1351.848,-210.0,,
1351.863,-74.78,,
1351.878,-67.04,,
1351.893,-72.0,,
1351.908,-73.5,,
1351.923,-70.54,,
1351.938,-69.26,,
1351.953,-68.16,,
1351.968,-65.69,,
1351.983,-67.43,,
1351.998,-69.18,,
1352.013,-66.7,,
1352.028,-65.0,,
1352.043,-67.73,,
1352.058,-69.52,,
1352.073,-65.89,,
1352.088,-65.56,,
1352.103,-65.29,,
1352.118,-67.45,,
1352.133,-68.43,,
1352.148,-66.67,,
1352.163,-66.27,,
1352.178,-68.6,,
1352.193,-66.95,,
1352.208,-66.82,,
1352.223,-68.7,,
1352.238,-69.15,,
1352.253,-69.59,,
1352.268,-68.18,,
1352.283,-67.22,,
1352.298,-65.78,,
1352.313,-67.47,,
1352.328,-69.23,,
1352.343,-65.56,,
1352.358,-65.34,,
1352.373,-66.67,,
1352.388,-65.38,,
1352.403,-64.19,,
1352.418,-64.96,,
1352.433,-65.57,,
1352.448,-64.48,,
1352.463,-66.03,,
1352.478,-70.14,,
1352.493,-66.03,,
1352.508,-64.38,,
1352.523,-67.76,,
1352.538,-65.27,,
1352.553,-63.89,,
1352.568,-65.04,,
1352.583,-66.19,,
1352.598,-63.45,,
1352.613,-63.44,,
1352.628,-64.95,,
1352.643,-64.8,,
1352.658,-63.82,,
1352.673,-63.89,,
1352.688,-64.27,,
1352.703,-62.63,,
1352.718,-63.51,,
1352.733,-63.46,,
1352.748,-62.35,,
1352.763,-62.45,,
1352.778,-63.91,,
1352.793,-63.2,,
1352.808,-62.39,,
1352.823,-63.25,,
1352.838,-64.59,,
1352.853,-63.5,,
1352.868,-63.36,,
1352.883,-64.27,,
1352.898,-64.08,,
1352.913,-64.09,,
1352.928,-65.18,,
1352.943,-63.64,,
1352.958,-63.38,,
1352.973,-64.45,,
1352.988,-64.55,,
1353.003,-63.46,,
1353.018,-63.81,,
1353.033,-65.08,,
1353.048,-65.21,,
1353.063,-63.97,,
1353.078,-64.22,,
1353.093,-65.23,,
1353.108,-66.35,,
1353.123,-64.96,,
1353.138,-65.38,,
1353.153,-64.46,,
1353.168,-65.7,,
1353.183,-68.16,,
1353.198,-66.19,,
1353.213,-65.47,,
1353.228,-65.8,,
1353.243,-65.47,,
1353.258,-64.61,,
1353.273,-65.31,,
1353.288,-65.57,,
1353.303,-69.21,,
1353.318,-67.08,,
1353.333,-65.9,,
1353.348,-68.85,,
1353.363,-67.42,,
1353.378,-68.52,,
1353.393,-69.03,,
1353.408,-68.04,,
1353.423,-69.83,,
1353.438,-73.78,,
1353.453,-73.71,,
1353.468,-69.85,,
1353.483,-66.68,,
1353.498,-71.1,,
1353.513,-74.78,,
1353.528,-69.32,,
1353.543,-69.48,,
1353.558,-210.0,,
1353.573,-77.91,,
1353.588,-80.52,,
1353.603,-74.44,,
1353.618,-89.57,,
1353.633,-210.0,,
1353.648,-210.0,,
1353.663,-210.0,,
1353.678,-210.0,,
1353.693,-210.0,,
1353.708,-210.0,,
1353.723,-210.0,,
1353.738,-210.0,,
1353.753,-210.0,,
1353.768,-210.0,,
1353.783,-210.0,,
1353.798,-210.0,,
1353.813,-210.0,,
1353.828,-210.0,,
1353.843,-210.0,,
1353.858,-210.0,,
1353.873,-210.0,,
1353.888,-210.0,,
1353.903,-210.0,,
1353.918,-210.0,,
1353.933,-210.0,,
1353.948,-210.0,,
1353.963,-210.0,,
1353.978,-210.0,,
1353.993,-210.0,,
1354.008,-210.0,,
1354.023,-210.0,,
1354.038,-210.0,,
1354.053,-210.0,,
1354.068,-210.0,,
1354.083,-210.0,,
1354.098,-210.0,,
1354.113,-210.0,,
1354.128,-210.0,,
1354.143,-210.0,,
1354.158,-210.0,,
1354.173,-210.0,,
1354.188,-210.0,,
1354.203,-210.0,,
1354.218,-210.0,,
1354.233,-210.0,,
1354.248,-210.0,,
1354.263,-210.0,,
1354.278,-210.0,,
1354.293,-210.0,,
1354.308,-210.0,,
1354.323,-210.0,,
1354.338,-210.0,,
1354.353,-210.0,,
1354.368,-210.0,,
1354.383,-210.0,,
1354.398,-210.0,,
1354.413,-210.0,,
1354.428,-210.0,,
1354.443,-210.0,,
1354.458,-210.0,,
1354.473,-210.0,,
1354.488,-210.0,,
1354.503,-210.0,,
1354.518,-79.14,,
1354.533,-210.0,,
1354.548,-210.0,,
1354.563,-75.03,,
1354.578,-210.0,,
1354.593,-72.85,,
1354.608,-210.0,,
1354.623,-210.0,,
1354.638,-78.19,,
1354.653,-74.14,,
1354.668,-210.0,,
1354.683,-210.0,,
1354.698,-210.0,,
1354.713,-67.93,,
1354.728,-68.83,,
1354.743,-210.0,,
1354.758,-71.63,,
1354.773,-70.25,,
1354.788,-70.33,,
1354.803,-68.98,,
1354.818,-69.86,,
1354.833,-71.37,,
1354.848,-73.11,,
1354.863,-73.18,,
1354.878,-82.06,,
1354.893,-210.0,,
1354.908,-210.0,,
1354.923,-210.0,,
1354.938,-210.0,,
1354.953,-210.0,,
1354.968,-210.0,,
1354.983,-210.0,,
1354.998,-210.0,,
1355.013,-210.0,,
1355.028,-210.0,,
1355.043,-210.0,,
1355.058,-210.0,,
1355.073,-210.0,,
1355.088,-210.0,,
1355.103,-210.0,,
1355.118,-76.3,,
1355.133,-210.0,,
1355.148,-210.0,,
1355.163,-83.16,,
1355.178,-210.0,,
1355.193,-210.0,,
1355.208,-210.0,,
1355.223,-210.0,,
1355.238,-210.0,,
1355.253,-210.0,,
1355.268,-72.57,,
1355.283,-210.0,,
1355.298,-210.0,,
1355.313,-70.79,,
1355.328,-76.46,,
1355.343,-210.0,,
1355.358,-74.82,,
1355.373,-71.99,,
1355.388,-75.89,,
1355.403,-82.86,,
1355.418,-70.05,,
1355.433,-77.11,,
1355.448,-210.0,,
1355.463,-67.8,,
1355.478,-69.76,,
1355.493,-210.0,,
1355.508,-72.19,,
1355.523,-74.86,,
1355.538,-210.0,,
1355.553,-210.0,,
1355.568,-74.8,,
1355.583,-81.41,,
1355.598,-210.0,,
1355.613,-72.05,,
1355.628,-210.0,,
1355.643,-210.0,,
1355.658,-210.0,,
1355.673,-70.15,,
1355.688,-210.0,,
1355.703,-75.58,,
1355.718,-76.08,,
1355.733,-210.0,,
1355.748,-210.0,,
1355.763,-210.0,,
1355.778,-210.0,,
1355.793,-210.0,,
1355.808,-210.0,,
1355.823,-210.0,,
1355.838,-210.0,,
1355.853,-210.0,,
1355.868,-210.0,,
1355.883,-210.0,,
1355.898,-210.0,,
1355.913,-210.0,,
1355.928,-210.0,,
1355.943,-210.0,,
1355.958,-88.94,,
1355.973,-74.54,,
1355.988,-210.0,,
1356.003,-73.71,,
1356.018,-67.09,,
1356.033,-69.84,,
1356.048,-78.05,,
1356.063,-67.24,,
1356.078,-70.27,,
1356.093,-71.14,,
1356.108,-67.11,,
1356.123,-67.64,,
1356.138,-72.71,,
1356.153,-70.3,,
1356.168,-68.23,,
1356.183,-210.0,,
1356.198,-71.5,,
1356.213,-66.54,,
1356.228,-68.64,,
1356.243,-74.14,,
1356.258,-70.42,,
1356.273,-68.23,,
1356.288,-71.24,,
1356.303,-70.08,,
1356.318,-71.69,,
1356.333,-73.58,,
1356.348,-72.45,,
1356.363,-70.55,,
1356.378,-75.85,,
1356.393,-210.0,,
1356.408,-210.0,,
1356.423,-70.42,,
1356.438,-210.0,,
1356.453,-210.0,,
1356.468,-210.0,,
1356.483,-210.0,,
1356.498,-210.0,,
1356.513,-210.0,,
1356.528,-210.0,,
1356.543,-81.4,,
1356.558,-68.9,,
1356.573,-69.11,,
1356.588,-210.0,,
1356.603,-210.0,,
1356.618,-74.3,,
1356.633,-69.47,,
1356.648,-71.24,,
1356.663,-69.55,,
1356.678,-69.68,,
1356.693,-67.53,,
1356.708,-70.68,,
1356.723,-70.73,,
1356.738,-69.39,,
1356.753,-66.0,,
1356.768,-64.93,,
1356.783,-66.89,,
1356.798,-67.79,,
1356.813,-64.39,,
1356.828,-64.74,,
1356.843,-64.98,,
1356.858,-64.56,,
1356.873,-64.58,,
1356.888,-63.98,,
1356.903,-64.53,,
1356.918,-64.89,,
1356.933,-66.38,,
1356.948,-66.49,,
1356.963,-64.39,,
1356.978,-64.52,,
1356.993,-66.65,,
1357.008,-67.11,,
1357.023,-68.44,,
1357.038,-67.81,,
1357.053,-68.26,,
1357.068,-69.12,,
1357.083,-67.07,,
1357.098,-65.55,,
1357.113,-67.0,,
1357.128,-67.88,,
1357.143,-68.94,,
1357.158,-66.37,,
1357.173,-66.37,,
1357.188,-65.7,,
1357.203,-67.48,,
1357.219,-68.17,,
1357.233,-65.99,,
1357.248,-65.18,,
1357.263,-67.14,,
1357.278,-69.01,,
1357.293,-69.0,,
1357.308,-66.98,,
1357.323,-65.39,,
1357.339,-66.91,,
1357.354,-68.81,,
1357.369,-65.83,,
1357.383,-65.25,,
1357.398,-64.72,,
1357.413,-65.09,,
1357.428,-65.71,,
1357.443,-64.78,,
1357.458,-63.97,,
1357.474,-64.21,,
1357.489,-65.74,,
1357.504,-65.87,,
1357.518,-63.96,,
1357.533,-64.76,,
1357.548,-65.9,,
1357.563,-66.02,,
1357.578,-66.15,,
1357.594,-65.3,,
1357.609,-66.23,,
1357.624,-66.64,,
1357.639,-67.08,,
1357.654,-66.52,,
1357.668,-65.36,,
1357.683,-66.74,,
1357.698,-70.01,,
1357.714,-66.74,,
1357.729,-66.08,,
1357.744,-68.56,,
1357.759,-70.39,,
1357.774,-69.29,,
1357.789,-68.59,,
1357.803,-66.36,,
1357.818,-65.78,,
1357.833,-67.35,,
1357.849,-66.9,,
1357.864,-65.75,,
1357.879,-65.23,,
1357.894,-67.19,,
1357.909,-67.34,,
1357.924,-66.32,,
1357.939,-66.55,,
1357.953,-67.46,,
1357.969,-65.42,,
1357.984,-68.0,,
1357.999,-68.43,,
1358.014,-65.04,,
1358.029,-64.58,,
1358.044,-67.74,,
1358.059,-64.99,,
1358.074,-64.08,,
1358.089,-65.87,,
1358.104,-69.55,,
1358.119,-65.95,,
1358.134,-69.37,,
1358.149,-67.88,,
1358.164,-66.09,,
1358.179,-67.58,,
1358.194,-72.59,,
1358.209,-67.06,,
1358.224,-65.72,,
1358.239,-70.96,,
1358.254,-76.48,,
1358.269,-66.21,,
1358.284,-68.75,,
1358.299,-68.37,,
1358.314,-65.86,,
1358.329,-67.77,,
1358.344,-73.93,,
1358.359,-65.65,,
1358.374,-65.61,,
1358.389,-70.47,,
1358.404,-68.04,,
1358.419,-65.1,,
1358.434,-67.98,,
1358.449,-68.26,,
1358.464,-65.22,,
1358.479,-67.75,,
1358.494,-68.35,,
1358.509,-64.64,,
1358.524,-65.34,,
1358.539,-69.21,,
1358.554,-66.0,,
1358.569,-64.64,,
1358.584,-65.52,,
1358.599,-64.97,,
1358.614,-62.99,,
1358.629,-63.81,,
1358.644,-64.27,,
1358.659,-63.02,,
1358.674,-64.05,,
1358.689,-66.14,,
1358.704,-63.85,,
1358.719,-63.08,,
1358.734,-65.38,,
1358.749,-64.04,,
1358.764,-63.18,,
1358.779,-65.12,,
1358.794,-65.95,,
1358.809,-64.79,,
1358.824,-66.53,,
1358.839,-72.6,,
1358.854,-66.85,,
1358.869,-65.73,,
1358.884,-69.3,,
1358.899,-72.96,,
1358.914,-67.92,,
1358.929,-72.92,,
1358.944,-72.13,,
1358.959,-65.41,,
1358.974,-71.02,,
1358.989,-210.0,,
1359.004,-66.72,,
1359.019,-67.44,,
1359.034,-210.0,,
1359.049,-68.79,,
1359.064,-69.17,,
1359.079,-81.76,,
1359.094,-72.45,,
1359.109,-66.66,,
1359.124,-71.74,,
1359.139,-68.06,,
1359.154,-66.04,,
1359.169,-67.88,,
1359.184,-82.22,,
1359.199,-66.68,,
1359.214,-65.66,,
1359.229,-69.28,,
1359.244,-65.48,,
1359.259,-63.82,,
1359.274,-69.02,,
1359.289,-66.17,,
1359.304,-64.9,,
1359.319,-66.22,,
1359.334,-68.74,,
1359.349,-64.87,,
1359.364,-65.51,,
1359.379,-66.29,,
1359.394,-64.46,,
1359.409,-64.46,,
1359.424,-67.52,,
1359.439,-64.97,,
1359.454,-64.56,,
1359.469,-67.42,,
1359.484,-66.38,,
1359.499,-64.56,,
1359.514,-64.8,,
1359.529,-67.6,,
1359.544,-64.43,,
1359.559,-65.42,,
1359.574,-67.61,,
1359.589,-65.55,,
1359.604,-66.87,,
1359.619,-90.27,,
1359.634,-67.25,,
1359.649,-66.15,,
1359.664,-69.07,,
1359.679,-72.59,,
1359.694,-66.24,,
1359.709,-70.53,,
1359.724,-74.22,,
1359.739,-66.46,,
1359.754,-69.19,,
1359.769,-77.16,,
1359.784,-67.1,,
1359.799,-64.98,,
1359.814,-67.34,,
1359.829,-68.74,,
1359.844,-64.63,,
1359.859,-68.02,,
1359.874,-68.15,,
1359.889,-65.67,,
1359.904,-66.31,,
1359.919,-67.56,,
1359.934,-64.62,,
1359.949,-64.65,,
1359.964,-68.23,,
1359.979,-67.49,,
1359.994,-64.57,,
1360.009,-66.52,,
1360.024,-65.91,,
1360.039,-64.27,,
1360.054,-66.39,,
1360.069,-65.49,,
1360.084,-63.7,,
1360.099,-64.72,,
1360.114,-67.81,,
1360.129,-64.32,,
1360.144,-63.31,,
1360.159,-64.73,,
1360.174,-63.48,,
1360.189,-62.57,,
1360.204,-64.12,,
1360.219,-64.19,,
1360.234,-62.56,,
1360.249,-64.42,,
1360.264,-67.33,,
1360.279,-63.25,,
1360.294,-63.34,,
1360.309,-65.62,,
1360.324,-64.69,,
1360.339,-64.07,,
1360.354,-65.44,,
1360.369,-65.23,,
1360.384,-64.28,,
1360.399,-66.04,,
1360.414,-67.59,,
1360.429,-64.37,,
1360.444,-65.14,,
1360.459,-67.8,,
1360.474,-65.81,,
1360.489,-67.05,,
1360.504,-69.32,,
1360.519,-68.59,,
1360.534,-66.37,,
1360.549,-210.0,,
1360.564,-70.48,,
1360.579,-65.86,,
1360.594,-68.9,,
1360.609,-210.0,,
1360.624,-68.57,,
1360.639,-210.0,,
1360.654,-210.0,,
1360.669,-72.84,,
1360.684,-70.6,,
1360.699,-210.0,,
1360.714,-68.95,,
1360.729,-67.64,,
1360.744,-210.0,,
1360.759,-71.13,,
1360.774,-68.63,,
1360.789,-210.0,,
1360.804,-210.0,,
1360.819,-71.85,,
1360.834,-78.13,,
1360.849,-210.0,,
1360.864,-72.16,,
1360.879,-69.36,,
1360.894,-210.0,,
1360.909,-68.73,,
1360.924,-67.04,,
1360.939,-77.09,,
1360.954,-72.31,,
1360.969,-66.8,,
1360.984,-67.19,,
1360.999,-69.16,,
1361.014,-66.04,,
1361.029,-73.05,,
1361.044,-70.95,,
1361.059,-66.04,,
1361.074,-68.29,,
1361.089,-210.0,,
1361.104,-69.71,,
1361.119,-67.13,,
1361.134,-76.96,,
1361.149,-210.0,,
1361.164,-210.0,,
1361.179,-210.0,,
1361.194,-210.0,,
1361.209,-210.0,,
1361.224,-210.0,,
1361.239,-210.0,,
1361.254,-210.0,,
1361.269,-210.0,,
1361.284,-210.0,,
1361.299,-210.0,,
1361.314,-210.0,,
1361.329,-210.0,,
1361.344,-210.0,,
1361.359,-210.0,,
1361.374,-210.0,,
1361.389,-210.0,,
1361.404,-210.0,,
1361.419,-210.0,,
1361.434,-210.0,,
1361.449,-210.0,,
1361.464,-210.0,,
1361.479,-210.0,,
1361.494,-210.0,,
1361.509,-210.0,,
1361.524,-210.0,,
1361.539,-210.0,,
1361.554,-81.25,,
1361.569,-70.73,,
1361.584,-73.96,,
1361.599,-210.0,,
1361.614,-71.1,,
1361.629,-71.89,,
1361.644,-67.7,,
1361.659,-70.02,,
1361.674,-70.78,,
1361.689,-68.61,,
1361.704,-66.78,,
1361.719,-66.06,,
1361.734,-70.71,,
1361.749,-72.35,,
1361.764,-69.72,,
1361.779,-70.09,,
1361.794,-68.46,,
1361.809,-70.11,,
1361.824,-72.8,,
1361.839,-210.0,,
1361.854,-67.03,,
1361.869,-66.34,,
1361.884,-72.91,,
1361.899,-73.69,,
1361.914,-72.25,,
1361.929,-78.52,,
1361.944,-79.02,,
1361.959,-73.51,,
1361.974,-210.0,,
1361.989,-210.0,,
1362.004,-78.19,,
1362.019,-210.0,,
1362.034,-210.0,,
1362.049,-210.0,,
1362.064,-210.0,,
1362.079,-210.0,,
1362.094,-210.0,,
1362.109,-210.0,,
1362.124,-210.0,,
1362.139,-210.0,,
1362.154,-75.52,,
1362.169,-70.93,,
1362.184,-76.67,,
1362.199,-73.95,,
1362.214,-74.36,,
1362.229,-68.97,,
1362.244,-66.6,,
1362.259,-72.02,,
1362.274,-210.0,,
1362.289,-70.8,,
1362.304,-68.27,,
1362.319,-67.69,,
1362.334,-69.99,,
1362.349,-76.3,,
1362.364,-69.03,,
1362.379,-66.96,,
1362.394,-67.41,,
1362.409,-80.97,,
1362.424,-68.56,,
1362.439,-68.55,,
1362.454,-66.71,,
1362.469,-66.56,,
1362.484,-67.29,,
1362.499,-66.33,,
1362.514,-65.8,,
1362.529,-65.4,,
1362.544,-66.17,,
1362.559,-67.0,,
1362.574,-69.18,,
1362.589,-70.16,,
1362.604,-68.25,,
1362.619,-71.82,,
1362.634,-69.31,,
1362.649,-69.02,,
1362.664,-67.6,,
1362.679,-66.67,,
1362.694,-68.27,,
1362.709,-72.98,,
1362.724,-210.0,,
1362.739,-71.64,,
1362.754,-66.65,,
1362.769,-72.71,,
1362.784,-70.36,,
1362.799,-80.08,,
1362.814,-69.06,,
1362.829,-68.73,,
1362.844,-68.08,,
1362.859,-71.78,,
1362.874,-74.35,,
1362.889,-69.29,,
1362.904,-70.33,,
1362.919,-210.0,,
1362.934,-210.0,,
1362.949,-210.0,,
1362.964,-82.49,,
1362.979,-72.77,,
1362.994,-75.66,,
1363.009,-210.0,,
1363.024,-210.0,,
1363.039,-70.89,,
1363.054,-84.48,,
1363.069,-83.39,,
1363.084,-210.0,,
1363.099,-73.93,,
1363.114,-71.34,,
1363.129,-67.78,,
1363.144,-71.16,,
1363.159,-75.16,,
1363.174,-77.57,,
1363.189,-69.64,,
1363.204,-69.93,,
1363.219,-72.6,,
1363.234,-77.17,,
1363.249,-75.31,,
1363.264,-70.43,,
1363.279,-67.62,,
1363.294,-70.79,,
1363.309,-73.23,,
1363.324,-70.65,,
1363.339,-67.55,,
1363.354,-66.29,,
1363.369,-68.3,,
1363.384,-83.21,,
1363.399,-81.86,,
1363.414,-68.26,,
1363.429,-68.9,,
1363.444,-210.0,,
1363.459,-210.0,,
1363.474,-210.0,,
1363.489,-77.04,,
1363.504,-210.0,,
1363.519,-210.0,,
1363.534,-210.0,,
1363.549,-210.0,,
1363.564,-210.0,,
1363.579,-210.0,,
1363.594,-210.0,,
1363.609,-210.0,,
1363.624,-210.0,,
1363.639,-210.0,,
1363.654,-210.0,,
1363.669,-210.0,,
1363.684,-210.0,,
1363.699,-210.0,,
1363.714,-210.0,,
1363.729,-210.0,,
1363.744,-210.0,,
1363.759,-210.0,,
1363.774,-210.0,,
1363.789,-210.0,,
1363.804,-210.0,,
1363.819,-210.0,,
1363.834,-210.0,,
1363.849,-210.0,,
1363.864,-210.0,,
1363.879,-210.0,,
1363.894,-210.0,,
1363.909,-210.0,,
1363.924,-210.0,,
1363.939,-210.0,,
1363.954,-70.26,,
1363.969,-210.0,,
1363.984,-210.0,,
1363.999,-68.89,,
1364.014,-69.95,,
1364.029,-68.81,,
1364.044,-69.73,,
1364.059,-70.03,,
1364.074,-76.81,,
1364.089,-67.59,,
1364.104,-67.37,,
1364.119,-80.22,,
1364.134,-77.75,,
1364.149,-74.27,,
1364.164,-79.44,,
1364.179,-79.24,,
1364.194,-75.37,,
1364.209,-210.0,,
1364.224,-210.0,,
1364.239,-69.68,,
1364.254,-210.0,,
1364.269,-210.0,,
1364.284,-210.0,,
1364.299,-210.0,,
1364.314,-210.0,,
1364.329,-210.0,,
1364.344,-210.0,,
1364.359,-210.0,,
1364.374,-210.0,,
1364.389,-210.0,,
1364.404,-210.0,,
1364.419,-210.0,,
1364.434,-210.0,,
1364.449,-210.0,,
1364.464,-210.0,,
1364.479,-210.0,,
1364.494,-210.0,,
1364.509,-210.0,,
1364.524,-210.0,,
1364.539,-210.0,,
1364.554,-210.0,,
1364.569,-210.0,,
1364.584,-210.0,,
1364.599,-210.0,,
1364.614,-210.0,,
1364.629,-210.0,,
1364.644,-210.0,,
1364.659,-210.0,,
1364.674,-210.0,,
1364.689,-210.0,,
1364.704,-210.0,,
1364.719,-210.0,,
1364.734,-210.0,,
1364.749,-210.0,,
1364.764,-210.0,,
1364.779,-210.0,,
1364.794,-210.0,,
1364.809,-210.0,,
1364.824,-210.0,,
1364.839,-210.0,,
1364.854,-80.22,,
1364.869,-77.68,,
1364.884,-210.0,,
1364.899,-210.0,,
1364.914,-210.0,,
1364.929,-210.0,,
1364.944,-210.0,,
1364.959,-210.0,,
1364.974,-210.0,,
1364.989,-210.0,,
1365.004,-210.0,,
1365.019,-210.0,,
1365.034,-210.0,,
1365.049,-210.0,,
1365.064,-210.0,,
1365.079,-210.0,,
1365.094,-210.0,,
1365.109,-210.0,,
1365.124,-210.0,,
1365.139,-210.0,,
1365.154,-210.0,,
1365.169,-210.0,,
1365.184,-210.0,,
1365.199,-210.0,,
1365.214,-210.0,,
1365.229,-210.0,,
1365.245,-210.0,,
1365.259,-210.0,,
1365.274,-210.0,,
1365.289,-210.0,,
1365.304,-210.0,,
1365.319,-210.0,,
1365.334,-210.0,,
1365.349,-84.44,,
1365.365,-73.54,,
1365.38,-73.5,,
1365.395,-210.0,,
1365.409,-70.18,,
1365.424,-70.41,,
1365.439,-75.94,,
1365.454,-73.26,,
1365.469,-70.42,,
1365.484,-71.52,,
1365.5,-72.02,,
1365.515,-66.31,,
1365.53,-67.0,,
1365.544,-77.66,,
1365.559,-78.5,,
1365.574,-210.0,,
1365.589,-210.0,,
1365.604,-210.0,,
1365.62,-72.71,,
1365.635,-210.0,,
1365.65,-75.21,,
1365.665,-74.99,,
1365.68,-71.4,,
1365.694,-72.1,,
1365.709,-73.57,,
1365.724,-75.63,,
1365.74,-81.5,,
1365.755,-68.38,,
1365.77,-76.66,,
1365.785,-78.63,,
1365.8,-77.17,,
1365.815,-210.0,,
1365.83,-82.25,,
1365.844,-89.2,,
1365.859,-78.87,,
1365.875,-210.0,,
1365.89,-89.02,,
1365.905,-210.0,,
1365.92,-78.55,,
1365.935,-74.55,,
1365.95,-72.42,,
1365.965,-78.15,,
1365.979,-67.65,,
1365.995,-66.73,,
1366.01,-71.45,,
1366.025,-69.96,,
1366.04,-69.34,,
1366.055,-72.61,,
1366.07,-73.81,,
1366.085,-73.09,,
1366.1,-210.0,,
1366.115,-210.0,,
1366.13,-71.77,,
1366.145,-210.0,,
1366.16,-210.0,,
1366.175,-210.0,,
1366.19,-73.62,,
1366.205,-77.84,,
1366.22,-67.09,,
1366.235,-66.55,,
1366.25,-71.57,,
1366.265,-73.6,,
1366.28,-70.47,,
1366.295,-69.07,,
1366.31,-70.12,,
1366.325,-68.14,,
1366.34,-76.29,,
1366.355,-210.0,,
1366.37,-67.92,,
1366.385,-68.81,,
1366.4,-67.67,,
1366.415,-67.39,,
1366.43,-67.79,,
1366.445,-69.99,,
1366.46,-65.31,,
1366.475,-65.28,,
1366.49,-69.27,,
1366.505,-66.26,,
1366.52,-66.67,,
1366.535,-67.3,,
1366.55,-66.54,,
1366.565,-65.98,,
1366.58,-67.57,,
1366.595,-66.31,,
1366.61,-64.28,,
1366.625,-66.21,,
1366.64,-65.97,,
1366.655,-64.9,,
1366.67,-64.58,,
1366.685,-66.21,,
1366.7,-63.91,,
1366.715,-63.37,,
1366.73,-66.23,,
1366.745,-64.52,,
1366.76,-65.24,,
1366.775,-65.28,,
1366.79,-64.91,,
1366.805,-65.22,,
1366.82,-69.27,,
1366.835,-70.22,,
1366.85,-65.7,,
1366.865,-67.96,,
1366.88,-68.2,,
1366.895,-67.31,,
1366.91,-67.28,,
1366.925,-66.39,,
1366.94,-64.17,,
1366.955,-65.02,,
1366.97,-67.94,,
1366.985,-68.34,,
1367.0,-69.38,,
1367.015,-68.18,,
1367.03,-69.1,,
1367.045,-68.97,,
1367.06,-210.0,,
1367.075,-71.55,,
1367.09,-68.16,,
1367.105,-66.46,,
1367.12,-67.23,,
1367.135,-66.55,,
1367.15,-66.09,,
1367.165,-64.98,,
1367.18,-63.06,,
1367.195,-63.69,,
1367.21,-65.42,,
1367.225,-65.28,,
1367.24,-65.49,,
1367.255,-66.21,,
1367.27,-66.8,,
1367.285,-66.56,,
1367.3,-70.82,,
1367.315,-68.21,,
1367.33,-68.11,,
1367.345,-67.77,,
1367.36,-67.02,,
1367.375,-67.07,,
1367.39,-68.37,,
1367.405,-67.48,,
1367.42,-65.63,,
1367.435,-66.78,,
1367.45,-67.73,,
1367.465,-68.61,,
1367.48,-68.27,,
1367.495,-66.98,,
1367.51,-68.86,,
1367.525,-67.77,,
1367.54,-210.0,,
1367.555,-70.2,,
1367.57,-68.14,,
1367.585,-67.67,,
1367.6,-71.68,,
1367.615,-71.1,,
1367.63,-69.84,,
1367.645,-70.1,,
1367.66,-67.52,,
1367.675,-70.07,,
1367.69,-70.81,,
1367.705,-80.82,,
1367.72,-210.0,,
1367.735,-71.88,,
1367.75,-66.81,,
1367.765,-66.35,,
1367.78,-68.84,,
1367.795,-66.62,,
1367.81,-65.42,,
1367.825,-64.54,,
1367.84,-64.24,,
1367.855,-64.01,,
1367.87,-65.82,,
1367.885,-63.94,,
1367.9,-63.5,,
1367.915,-64.55,,
1367.93,-66.17,,
1367.945,-67.12,,
1367.96,-72.44,,
1367.975,-68.7,,
1367.99,-66.36,,
1368.005,-65.89,,
1368.02,-69.74,,
1368.035,-66.66,,
1368.05,-65.78,,
1368.065,-66.16,,
1368.08,-63.88,,
1368.095,-64.14,,
1368.11,-66.35,,
1368.125,-64.52,,
1368.14,-64.59,,
1368.155,-65.09,,
1368.17,-67.5,,
1368.185,-67.25,,
1368.2,-77.48,,
1368.215,-68.92,,
1368.23,-67.12,,
1368.245,-74.66,,
1368.26,-210.0,,
1368.275,-67.68,,
1368.29,-71.2,,
1368.305,-72.6,,
1368.32,-67.73,,
1368.335,-67.79,,
1368.35,-79.78,,
1368.365,-68.4,,
1368.38,-66.96,,
1368.395,-73.46,,
1368.41,-68.12,,
1368.425,-70.13,,
1368.44,-210.0,,
1368.455,-75.8,,
1368.47,-67.52,,
1368.485,-75.1,,
1368.5,-70.72,,
1368.515,-65.98,,
1368.53,-72.88,,
1368.545,-68.01,,
1368.56,-65.47,,
1368.575,-67.95,,
1368.59,-75.53,,
1368.605,-66.51,,
1368.62,-68.57,,
1368.635,-75.74,,
1368.65,-65.85,,
1368.665,-67.01,,
1368.68,-74.32,,
1368.695,-69.24,,
1368.71,-65.5,,
1368.725,-67.38,,
1368.74,-65.8,,
1368.755,-67.25,,
1368.77,-210.0,,
1368.785,-72.11,,
1368.8,-67.51,,
1368.815,-75.95,,
1368.83,-210.0,,
1368.845,-69.52,,
1368.86,-210.0,,
1368.875,-210.0,,
1368.89,-72.49,,
1368.905,-77.75,,
1368.92,-210.0,,
1368.935,-71.8,,
1368.95,-69.31,,
1368.965,-70.18,,
1368.98,-65.17,,
1368.995,-65.65,,
1369.01,-75.15,,
1369.025,-68.05,,
1369.04,-65.08,,
1369.055,-68.45,,
1369.07,-66.98,,
1369.085,-67.39,,
1369.1,-210.0,,
1369.115,-71.62,,
1369.13,-68.27,,
1369.145,-73.13,,
1369.16,-210.0,,
1369.175,-69.17,,
1369.19,-71.22,,
1369.205,-73.94,,
1369.22,-67.25,,
1369.235,-69.59,,
1369.25,-78.68,,
1369.265,-66.33,,
1369.28,-66.19,,
1369.295,-66.38,,
1369.31,-65.87,,
1369.325,-65.14,,
1369.34,-69.41,,
1369.355,-65.42,,
1369.37,-64.47,,
1369.385,-67.62,,
1369.4,-66.83,,
1369.415,-66.36,,
1369.43,-66.4,,
1369.445,-66.3,,
1369.46,-64.88,,
1369.475,-68.07,,
1369.49,-68.38,,
1369.505,-68.93,,
1369.52,-69.83,,
1369.535,-70.09,,
1369.55,-67.43,,
1369.565,-81.65,,
1369.58,-210.0,,
1369.595,-69.02,,
1369.61,-70.15,,
1369.625,-72.21,,
1369.64,-69.22,,
1369.655,-72.46,,
1369.67,-210.0,,
1369.685,-73.88,,
1369.7,-68.45,,
1369.715,-210.0,,
1369.73,-210.0,,
1369.745,-210.0,,
1369.76,-210.0,,
1369.775,-69.31,,
1369.79,-67.08,,
1369.805,-76.26,,
1369.82,-210.0,,
1369.835,-67.83,,
1369.85,-71.97,,
1369.865,-71.05,,
1369.88,-66.38,,
1369.895,-69.0,,
1369.91,-210.0,,
1369.925,-67.52,,
1369.94,-67.29,,
1369.955,-210.0,,
1369.97,-72.07,,
1369.985,-74.42,,
1370.0,-210.0,,
