wavelength_axis,light_level,mean_wavelength,total_power
1250.0,-210.0,1307.741,-28.677005006630164
1250.015,-210.0,,
1250.03,-210.0,,
1250.045,-210.0,,
1250.06,-79.13,,
1250.075,-70.19,,
1250.09,-81.88,,
1250.105,-210.0,,
1250.12,-210.0,,
1250.135,-69.82,,
1250.15,-67.26,,
1250.165,-69.71,,
1250.18,-70.44,,
1250.195,-77.73,,
1250.21,-70.39,,
1250.225,-65.49,,
1250.24,-65.17,,
1250.255,-67.73,,
1250.27,-210.0,,
1250.285,-210.0,,
1250.3,-68.96,,
1250.315,-71.26,,
1250.33,-77.21,,
1250.345,-210.0,,
1250.36,-210.0,,
1250.375,-83.49,,
1250.39,-66.8,,
1250.405,-66.25,,
1250.42,-67.03,,
1250.435,-77.41,,
1250.45,-210.0,,
1250.465,-71.09,,
1250.48,-69.45,,
1250.495,-210.0,,
1250.51,-210.0,,
1250.525,-210.0,,
1250.54,-210.0,,
1250.555,-77.25,,
1250.57,-74.95,,
1250.585,-73.04,,
1250.6,-210.0,,
1250.615,-210.0,,
1250.63,-210.0,,
1250.645,-210.0,,
1250.66,-210.0,,
1250.675,-210.0,,
1250.69,-210.0,,
1250.705,-210.0,,
1250.72,-75.86,,
1250.735,-210.0,,
1250.75,-77.76,,
1250.765,-210.0,,
1250.78,-210.0,,
1250.795,-210.0,,
1250.81,-210.0,,
1250.825,-210.0,,
1250.84,-210.0,,
1250.855,-210.0,,
1250.87,-210.0,,
1250.885,-210.0,,
1250.9,-78.23,,
1250.915,-210.0,,
1250.93,-210.0,,
1250.945,-210.0,,
1250.96,-76.15,,
1250.975,-70.37,,
1250.99,-71.37,,
1251.005,-69.17,,
1251.02,-210.0,,
1251.035,-74.93,,
1251.05,-74.04,,
1251.065,-71.01,,
1251.08,-78.8,,
1251.095,-210.0,,
1251.11,-79.07,,
1251.125,-210.0,,
1251.14,-75.17,,
1251.155,-210.0,,
1251.17,-210.0,,
1251.185,-210.0,,
1251.2,-210.0,,
1251.215,-210.0,,
1251.23,-210.0,,
1251.245,-210.0,,
1251.26,-210.0,,
1251.275,-210.0,,
1251.29,-210.0,,
1251.305,-210.0,,
1251.32,-210.0,,
1251.335,-210.0,,
1251.35,-210.0,,
1251.365,-210.0,,
1251.38,-210.0,,
1251.395,-210.0,,
1251.41,-210.0,,
1251.425,-210.0,,
1251.44,-210.0,,
1251.455,-210.0,,
1251.47,-210.0,,
1251.485,-210.0,,
1251.5,-210.0,,
1251.515,-210.0,,
1251.53,-210.0,,
1251.545,-210.0,,
1251.56,-210.0,,
1251.575,-210.0,,
1251.59,-210.0,,
1251.605,-210.0,,
1251.62,-71.96,,
1251.635,-67.82,,
1251.65,-71.08,,
1251.665,-210.0,,
1251.68,-210.0,,
1251.695,-210.0,,
1251.71,-210.0,,
1251.725,-73.79,,
1251.74,-210.0,,
1251.755,-210.0,,
1251.77,-210.0,,
1251.785,-70.5,,
1251.8,-69.51,,
1251.815,-69.97,,
1251.83,-210.0,,
1251.845,-210.0,,
1251.86,-210.0,,
1251.875,-79.08,,
1251.89,-69.65,,
1251.905,-210.0,,
1251.92,-210.0,,
1251.935,-210.0,,
1251.95,-78.32,,
1251.965,-210.0,,
1251.98,-95.2,,
1251.995,-210.0,,
1252.01,-210.0,,
1252.025,-210.0,,
1252.04,-71.67,,
1252.055,-68.75,,
1252.07,-210.0,,
1252.085,-210.0,,
1252.1,-210.0,,
1252.115,-69.85,,
1252.13,-69.42,,
1252.145,-69.01,,
1252.16,-210.0,,
1252.175,-210.0,,
1252.19,-69.92,,
1252.205,-66.0,,
1252.22,-66.09,,
1252.235,-71.75,,
1252.25,-67.78,,
1252.265,-67.37,,
1252.28,-64.29,,
1252.295,-65.87,,
1252.31,-66.56,,
1252.325,-72.73,,
1252.34,-68.35,,
1252.355,-66.68,,
1252.37,-64.38,,
1252.385,-64.57,,
1252.4,-67.73,,
1252.415,-67.43,,
1252.43,-65.96,,
1252.445,-64.23,,
1252.46,-66.24,,
1252.475,-67.2,,
1252.49,-71.14,,
1252.505,-66.51,,
1252.52,-65.26,,
1252.535,-65.56,,
1252.55,-66.31,,
1252.565,-69.32,,
1252.58,-71.8,,
1252.595,-66.98,,
1252.61,-65.1,,
1252.625,-65.67,,
1252.64,-70.56,,
1252.655,-77.35,,
1252.67,-68.93,,
1252.685,-66.81,,
1252.7,-66.55,,
1252.715,-65.95,,
1252.73,-68.83,,
1252.745,-67.33,,
1252.76,-66.1,,
1252.775,-63.62,,
1252.79,-64.8,,
1252.805,-66.48,,
1252.82,-66.58,,
1252.835,-65.28,,
1252.85,-64.21,,
1252.865,-63.55,,
1252.88,-63.99,,
1252.895,-66.52,,
1252.91,-65.73,,
1252.925,-64.48,,
1252.94,-62.69,,
1252.955,-63.48,,
1252.97,-64.69,,
1252.985,-65.16,,
1253.0,-64.18,,
1253.015,-62.32,,
1253.03,-62.86,,
1253.045,-64.7,,
1253.06,-66.13,,
1253.075,-64.65,,
1253.09,-63.76,,
1253.105,-64.12,,
1253.12,-65.03,,
1253.135,-66.77,,
1253.15,-66.74,,
1253.165,-65.41,,
1253.18,-64.46,,
1253.195,-65.65,,
1253.21,-72.57,,
1253.225,-210.0,,
1253.24,-70.63,,
1253.255,-68.65,,
1253.271,-69.18,,
1253.285,-210.0,,
1253.3,-210.0,,
1253.315,-72.36,,
1253.33,-66.75,,
1253.345,-65.99,,
1253.36,-67.78,,
1253.375,-75.28,,
1253.391,-210.0,,
1253.406,-69.03,,
1253.421,-69.21,,
1253.435,-210.0,,
1253.45,-210.0,,
1253.465,-210.0,,
1253.48,-210.0,,
1253.495,-73.47,,
1253.51,-73.6,,
1253.526,-210.0,,
1253.541,-210.0,,
1253.556,-210.0,,
1253.571,-70.66,,
1253.585,-71.11,,
1253.6,-210.0,,
1253.615,-210.0,,
1253.63,-210.0,,
1253.646,-210.0,,
1253.661,-68.63,,
1253.676,-67.7,,
1253.691,-210.0,,
1253.706,-76.86,,
1253.72,-71.55,,
1253.735,-68.6,,
1253.75,-67.75,,
1253.766,-70.98,,
1253.781,-210.0,,
1253.796,-210.0,,
1253.811,-73.55,,
1253.826,-75.71,,
1253.841,-210.0,,
1253.856,-210.0,,
1253.87,-210.0,,
1253.885,-210.0,,
1253.901,-210.0,,
1253.916,-80.24,,
1253.931,-210.0,,
1253.946,-210.0,,
1253.961,-210.0,,
1253.976,-210.0,,
1253.991,-210.0,,
1254.005,-210.0,,
1254.021,-210.0,,
1254.036,-210.0,,
1254.051,-210.0,,
1254.066,-210.0,,
1254.081,-210.0,,
1254.096,-210.0,,
1254.111,-210.0,,
1254.126,-210.0,,
1254.141,-77.86,,
1254.156,-210.0,,
1254.171,-210.0,,
1254.186,-210.0,,
1254.201,-210.0,,
1254.216,-210.0,,
1254.231,-210.0,,
1254.246,-210.0,,
1254.261,-210.0,,
1254.276,-210.0,,
1254.291,-210.0,,
1254.306,-69.55,,
1254.321,-70.72,,
1254.336,-210.0,,
1254.351,-210.0,,
1254.366,-210.0,,
1254.381,-69.23,,
1254.396,-67.05,,
1254.411,-70.95,,
1254.426,-210.0,,
1254.441,-72.61,,
1254.456,-66.22,,
1254.471,-64.25,,
1254.486,-65.06,,
1254.501,-67.2,,
1254.516,-67.06,,
1254.531,-66.62,,
1254.546,-64.45,,
1254.561,-64.84,,
1254.576,-67.16,,
1254.591,-68.36,,
1254.606,-67.36,,
1254.621,-65.58,,
1254.636,-64.25,,
1254.651,-63.85,,
1254.666,-65.26,,
1254.681,-68.45,,
1254.696,-66.9,,
1254.711,-64.99,,
1254.726,-66.34,,
1254.741,-68.43,,
1254.756,-69.41,,
1254.771,-70.49,,
1254.786,-67.06,,
1254.801,-65.3,,
1254.816,-65.77,,
1254.831,-69.1,,
1254.846,-68.12,,
1254.861,-65.12,,
1254.876,-63.16,,
1254.891,-63.93,,
1254.906,-65.54,,
1254.921,-66.46,,
1254.936,-66.22,,
1254.951,-64.3,,
1254.966,-63.04,,
1254.981,-63.38,,
1254.996,-65.68,,
1255.011,-64.24,,
1255.026,-62.89,,
1255.041,-62.23,,
1255.056,-63.19,,
1255.071,-64.06,,
1255.086,-64.59,,
1255.101,-62.81,,
1255.116,-62.37,,
1255.131,-63.03,,
1255.146,-64.37,,
1255.161,-65.62,,
1255.176,-63.79,,
1255.191,-62.38,,
1255.206,-62.09,,
1255.221,-62.59,,
1255.236,-62.83,,
1255.251,-62.32,,
1255.266,-61.53,,
1255.281,-61.14,,
1255.296,-61.89,,
1255.311,-63.2,,
1255.326,-64.4,,
1255.341,-62.77,,
1255.356,-62.58,,
1255.371,-63.38,,
1255.386,-64.3,,
1255.401,-65.92,,
1255.416,-64.93,,
1255.431,-62.55,,
1255.446,-62.48,,
1255.461,-63.46,,
1255.476,-65.66,,
1255.491,-67.95,,
1255.506,-65.98,,
1255.521,-65.76,,
1255.536,-65.99,,
1255.551,-66.59,,
1255.566,-71.22,,
1255.581,-67.47,,
1255.596,-65.55,,
1255.611,-63.36,,
1255.626,-64.56,,
1255.641,-67.09,,
1255.656,-67.77,,
1255.671,-67.0,,
1255.686,-64.61,,
1255.701,-63.88,,
1255.716,-66.16,,
1255.731,-68.31,,
1255.746,-65.88,,
1255.761,-65.61,,
1255.776,-65.65,,
1255.791,-67.39,,
1255.806,-73.15,,
1255.821,-72.26,,
1255.836,-69.17,,
1255.851,-67.06,,
1255.866,-73.44,,
1255.881,-210.0,,
1255.896,-77.85,,
1255.911,-68.45,,
1255.926,-67.55,,
1255.941,-68.56,,
1255.956,-73.84,,
1255.971,-210.0,,
1255.986,-86.33,,
1256.001,-69.44,,
1256.016,-77.84,,
1256.031,-210.0,,
1256.046,-210.0,,
1256.061,-210.0,,
1256.076,-210.0,,
1256.091,-74.97,,
1256.106,-210.0,,
1256.121,-210.0,,
1256.136,-210.0,,
1256.151,-210.0,,
1256.166,-73.82,,
1256.181,-210.0,,
1256.196,-210.0,,
1256.211,-210.0,,
1256.226,-210.0,,
1256.241,-210.0,,
1256.256,-210.0,,
1256.271,-210.0,,
1256.286,-210.0,,
1256.301,-210.0,,
1256.316,-210.0,,
1256.331,-210.0,,
1256.346,-210.0,,
1256.361,-210.0,,
1256.376,-210.0,,
1256.391,-210.0,,
1256.406,-76.3,,
1256.421,-210.0,,
1256.436,-210.0,,
1256.451,-210.0,,
1256.466,-210.0,,
1256.481,-75.67,,
1256.496,-73.86,,
1256.511,-210.0,,
1256.526,-210.0,,
1256.541,-74.38,,
1256.556,-210.0,,
1256.571,-87.11,,
1256.586,-210.0,,
1256.601,-210.0,,
1256.616,-210.0,,
1256.631,-210.0,,
1256.646,-77.29,,
1256.661,-210.0,,
1256.676,-210.0,,
1256.691,-210.0,,
1256.706,-210.0,,
1256.721,-210.0,,
1256.736,-73.3,,
1256.751,-210.0,,
1256.766,-77.53,,
1256.781,-70.39,,
1256.796,-67.46,,
1256.811,-66.79,,
1256.826,-68.22,,
1256.841,-65.98,,
1256.856,-66.14,,
1256.871,-64.27,,
1256.886,-65.34,,
1256.901,-65.57,,
1256.916,-66.32,,
1256.931,-66.1,,
1256.946,-65.34,,
1256.961,-65.86,,
1256.976,-65.28,,
1256.991,-66.27,,
1257.006,-64.76,,
1257.021,-64.1,,
1257.036,-63.55,,
1257.051,-64.02,,
1257.066,-63.94,,
1257.081,-64.82,,
1257.096,-65.09,,
1257.111,-64.34,,
1257.126,-65.62,,
1257.141,-67.61,,
1257.156,-68.72,,
1257.171,-67.47,,
1257.186,-65.9,,
1257.201,-65.92,,
1257.216,-67.58,,
1257.231,-67.58,,
1257.246,-66.2,,
1257.261,-64.6,,
1257.276,-64.15,,
1257.291,-65.69,,
1257.306,-68.98,,
1257.321,-65.43,,
1257.336,-64.83,,
1257.351,-64.33,,
1257.366,-65.5,,
1257.381,-66.87,,
1257.396,-67.66,,
1257.411,-66.69,,
1257.426,-64.59,,
1257.441,-66.39,,
1257.456,-69.81,,
1257.471,-68.15,,
1257.486,-67.91,,
1257.501,-66.09,,
1257.516,-65.51,,
1257.531,-66.19,,
1257.546,-68.5,,
1257.561,-65.28,,
1257.576,-65.44,,
1257.591,-65.13,,
1257.606,-67.02,,
1257.621,-67.94,,
1257.636,-69.39,,
1257.651,-68.33,,
1257.666,-66.41,,
1257.681,-70.18,,
1257.696,-72.77,,
1257.711,-83.74,,
1257.726,-68.66,,
1257.741,-68.47,,
1257.756,-69.28,,
1257.771,-70.69,,
1257.786,-70.07,,
1257.801,-71.99,,
1257.816,-71.31,,
1257.831,-70.82,,
1257.846,-210.0,,
1257.861,-210.0,,
1257.876,-210.0,,
1257.891,-210.0,,
1257.906,-210.0,,
1257.921,-210.0,,
1257.936,-210.0,,
1257.951,-210.0,,
1257.966,-71.45,,
1257.981,-210.0,,
1257.996,-77.78,,
1258.011,-210.0,,
1258.026,-210.0,,
1258.041,-210.0,,
1258.056,-210.0,,
1258.071,-210.0,,
1258.086,-210.0,,
1258.101,-76.86,,
1258.116,-210.0,,
1258.131,-210.0,,
1258.146,-77.84,,
1258.161,-82.23,,
1258.176,-73.88,,
1258.191,-73.72,,
1258.206,-210.0,,
1258.221,-210.0,,
1258.236,-82.25,,
1258.251,-81.42,,
1258.266,-210.0,,
1258.281,-210.0,,
1258.296,-210.0,,
1258.311,-67.63,,
1258.326,-68.29,,
1258.341,-68.74,,
1258.356,-69.45,,
1258.371,-73.19,,
1258.386,-74.89,,
1258.401,-71.23,,
1258.416,-71.25,,
1258.431,-210.0,,
1258.446,-210.0,,
1258.461,-210.0,,
1258.476,-210.0,,
1258.491,-210.0,,
1258.506,-210.0,,
1258.521,-210.0,,
1258.536,-210.0,,
1258.551,-69.29,,
1258.566,-72.15,,
1258.581,-70.26,,
1258.596,-69.38,,
1258.611,-69.89,,
1258.626,-71.13,,
1258.641,-70.15,,
1258.656,-67.69,,
1258.671,-71.43,,
1258.686,-68.89,,
1258.701,-69.54,,
1258.716,-67.88,,
1258.731,-69.1,,
1258.746,-66.66,,
1258.761,-66.15,,
1258.776,-68.27,,
1258.791,-67.54,,
1258.806,-68.42,,
1258.821,-66.58,,
1258.836,-66.51,,
1258.851,-65.84,,
1258.866,-68.23,,
1258.881,-69.07,,
1258.896,-65.67,,
1258.911,-67.56,,
1258.926,-65.84,,
1258.941,-68.29,,
1258.956,-67.7,,
1258.971,-70.75,,
1258.986,-66.65,,
1259.001,-67.04,,
1259.016,-68.18,,
1259.031,-67.64,,
1259.046,-68.06,,
1259.061,-65.56,,
1259.076,-66.83,,
1259.091,-65.98,,
1259.106,-68.65,,
1259.121,-68.68,,
1259.136,-66.53,,
1259.151,-66.97,,
1259.166,-66.77,,
1259.181,-69.03,,
1259.196,-66.95,,
1259.211,-67.4,,
1259.226,-64.39,,
1259.241,-66.54,,
1259.256,-67.29,,
1259.271,-66.8,,
1259.286,-65.64,,
1259.301,-64.81,,
1259.316,-66.62,,
1259.331,-66.19,,
1259.346,-67.45,,
1259.361,-66.27,,
1259.376,-66.06,,
1259.391,-65.21,,
1259.406,-67.2,,
1259.421,-68.24,,
1259.436,-65.09,,
1259.451,-67.48,,
1259.466,-66.1,,
1259.481,-67.11,,
1259.496,-66.8,,
1259.511,-67.07,,
1259.526,-66.04,,
1259.541,-64.84,,
1259.556,-67.23,,
1259.571,-66.12,,
1259.586,-67.39,,
1259.601,-66.35,,
1259.616,-65.85,,
1259.631,-65.07,,
1259.646,-66.84,,
1259.661,-68.8,,
1259.676,-65.81,,
1259.691,-67.1,,
1259.706,-67.98,,
1259.721,-71.33,,
1259.736,-68.45,,
1259.751,-73.58,,
1259.766,-69.9,,
1259.781,-69.46,,
1259.796,-72.76,,
1259.811,-68.75,,
1259.826,-68.44,,
1259.841,-69.13,,
1259.856,-71.62,,
1259.871,-66.26,,
1259.886,-66.35,,
1259.901,-67.85,,
1259.916,-66.16,,
1259.931,-68.47,,
1259.946,-67.85,,
1259.961,-69.0,,
1259.976,-67.32,,
1259.991,-71.03,,
1260.006,-69.03,,
1260.021,-71.4,,
1260.036,-71.36,,
1260.051,-73.44,,
1260.066,-210.0,,
1260.081,-210.0,,
1260.096,-210.0,,
1260.111,-69.6,,
1260.126,-68.94,,
1260.141,-69.46,,
1260.156,-71.86,,
1260.171,-67.94,,
1260.186,-67.56,,
1260.201,-67.83,,
1260.216,-68.48,,
1260.231,-210.0,,
1260.246,-76.06,,
1260.261,-72.47,,
1260.276,-73.42,,
1260.291,-210.0,,
1260.306,-210.0,,
1260.321,-210.0,,
1260.336,-210.0,,
1260.351,-210.0,,
1260.366,-210.0,,
1260.381,-210.0,,
1260.396,-210.0,,
1260.411,-70.98,,
1260.426,-71.57,,
1260.441,-76.07,,
1260.456,-76.87,,
1260.471,-73.74,,
1260.486,-73.87,,
1260.501,-71.08,,
1260.516,-70.71,,
1260.531,-210.0,,
1260.546,-210.0,,
1260.561,-210.0,,
1260.576,-210.0,,
1260.591,-210.0,,
1260.606,-75.26,,
1260.621,-77.58,,
1260.636,-210.0,,
1260.651,-68.61,,
1260.666,-68.89,,
1260.681,-71.57,,
1260.696,-78.6,,
1260.711,-68.23,,
1260.726,-65.03,,
1260.741,-65.68,,
1260.756,-65.75,,
1260.771,-70.96,,
1260.786,-66.72,,
1260.801,-65.19,,
1260.816,-64.68,,
1260.831,-66.53,,
1260.846,-69.14,,
1260.861,-67.88,,
1260.876,-68.09,,
1260.891,-66.43,,
1260.906,-68.09,,
1260.921,-75.7,,
1260.936,-78.47,,
1260.951,-69.53,,
1260.966,-66.42,,
1260.981,-71.62,,
1260.996,-70.51,,
1261.011,-210.0,,
1261.026,-68.87,,
1261.041,-70.49,,
1261.056,-68.75,,
1261.071,-70.21,,
1261.086,-72.09,,
1261.101,-68.29,,
1261.116,-69.56,,
1261.131,-69.31,,
1261.146,-80.54,,
1261.161,-71.17,,
1261.176,-68.42,,
1261.191,-66.2,,
1261.206,-66.59,,
1261.221,-71.4,,
1261.236,-69.45,,
1261.251,-67.23,,
1261.266,-65.79,,
1261.281,-66.14,,
1261.297,-69.17,,
1261.312,-72.5,,
1261.326,-68.17,,
1261.341,-68.46,,
1261.356,-68.86,,
1261.371,-69.35,,
1261.386,-71.94,,
1261.401,-69.36,,
1261.417,-68.48,,
1261.432,-68.88,,
1261.447,-71.25,,
1261.461,-74.44,,
1261.476,-70.99,,
1261.491,-65.78,,
1261.506,-65.78,,
1261.521,-68.19,,
1261.536,-67.81,,
1261.552,-65.18,,
1261.567,-64.02,,
1261.582,-63.8,,
1261.597,-64.92,,
1261.611,-68.64,,
1261.626,-71.87,,
1261.641,-66.32,,
1261.656,-67.82,,
1261.672,-69.3,,
1261.687,-79.74,,
1261.702,-76.83,,
1261.717,-69.23,,
1261.732,-72.81,,
1261.746,-74.01,,
1261.761,-210.0,,
1261.776,-69.7,,
1261.792,-68.22,,
1261.807,-65.98,,
1261.822,-67.75,,
1261.837,-73.65,,
1261.852,-68.95,,
1261.867,-67.05,,
1261.882,-65.49,,
1261.896,-66.15,,
1261.911,-68.44,,
1261.927,-66.83,,
1261.942,-66.05,,
1261.957,-64.28,,
1261.972,-66.26,,
1261.987,-65.39,,
1262.002,-68.97,,
1262.017,-65.52,,
1262.031,-64.87,,
1262.047,-64.6,,
1262.062,-66.21,,
1262.077,-68.85,,
1262.092,-65.4,,
1262.107,-65.86,,
1262.122,-64.85,,
1262.137,-66.52,,
1262.152,-68.77,,
1262.167,-68.47,,
1262.182,-68.29,,
1262.197,-67.48,,
1262.212,-70.6,,
1262.227,-68.13,,
1262.242,-69.83,,
1262.257,-66.52,,
1262.272,-66.04,,
1262.287,-67.11,,
1262.302,-66.36,,
1262.317,-66.43,,
1262.332,-64.52,,
1262.347,-64.16,,
1262.362,-63.48,,
1262.377,-65.63,,
1262.392,-65.29,,
1262.407,-65.17,,
1262.422,-64.7,,
1262.437,-64.47,,
1262.452,-65.97,,
1262.467,-65.2,,
1262.482,-65.12,,
1262.497,-65.06,,
1262.512,-65.99,,
1262.527,-66.0,,
1262.542,-66.06,,
1262.557,-66.5,,
1262.572,-65.69,,
1262.587,-66.04,,
1262.602,-65.59,,
1262.617,-67.06,,
1262.632,-64.91,,
1262.647,-65.0,,
1262.662,-64.99,,
1262.677,-64.77,,
1262.692,-64.92,,
1262.707,-63.14,,
1262.722,-63.61,,
1262.737,-63.27,,
1262.752,-63.9,,
1262.767,-64.3,,
1262.782,-64.81,,
1262.797,-64.85,,
1262.812,-66.1,,
1262.827,-71.15,,
1262.842,-67.12,,
1262.857,-67.56,,
1262.872,-65.86,,
1262.887,-67.1,,
1262.902,-73.28,,
1262.917,-80.15,,
1262.932,-210.0,,
1262.947,-67.26,,
1262.962,-71.54,,
1262.977,-70.24,,
1262.992,-210.0,,
1263.007,-68.62,,
1263.022,-66.26,,
1263.037,-66.17,,
1263.052,-66.3,,
1263.067,-69.07,,
1263.082,-65.4,,
1263.097,-64.78,,
1263.112,-64.27,,
1263.127,-65.21,,
1263.142,-67.43,,
1263.157,-64.57,,
1263.172,-63.23,,
1263.187,-62.68,,
1263.202,-63.98,,
1263.217,-65.49,,
1263.232,-67.37,,
1263.247,-64.87,,
1263.262,-64.62,,
1263.277,-66.53,,
1263.292,-68.61,,
1263.307,-73.51,,
1263.322,-67.49,,
1263.337,-66.88,,
1263.352,-68.7,,
1263.367,-74.63,,
1263.382,-75.77,,
1263.397,-69.24,,
1263.412,-65.57,,
1263.427,-65.99,,
1263.442,-68.09,,
1263.457,-69.32,,
1263.472,-65.85,,
1263.487,-65.11,,
1263.502,-65.22,,
1263.517,-67.45,,
1263.532,-70.84,,
1263.547,-70.82,,
1263.562,-66.9,,
1263.577,-67.17,,
1263.592,-73.77,,
1263.607,-210.0,,
1263.622,-72.33,,
1263.637,-68.55,,
1263.652,-73.02,,
1263.667,-210.0,,
1263.682,-210.0,,
1263.697,-210.0,,
1263.712,-210.0,,
1263.727,-210.0,,
1263.742,-210.0,,
1263.757,-210.0,,
1263.772,-210.0,,
1263.787,-75.14,,
1263.802,-75.58,,
1263.817,-70.93,,
1263.832,-72.21,,
1263.847,-71.8,,
1263.862,-68.08,,
1263.877,-68.97,,
1263.892,-70.13,,
1263.907,-72.26,,
1263.922,-67.93,,
1263.937,-67.73,,
1263.952,-68.67,,
1263.967,-68.75,,
1263.982,-210.0,,
1263.997,-71.87,,
1264.012,-73.3,,
1264.027,-71.7,,
1264.042,-210.0,,
1264.057,-210.0,,
1264.072,-210.0,,
1264.087,-210.0,,
1264.102,-210.0,,
1264.117,-210.0,,
1264.132,-210.0,,
1264.147,-210.0,,
1264.162,-210.0,,
1264.177,-210.0,,
1264.192,-210.0,,
1264.207,-210.0,,
1264.222,-210.0,,
1264.237,-210.0,,
1264.252,-210.0,,
1264.267,-210.0,,
1264.282,-210.0,,
1264.297,-210.0,,
1264.312,-75.09,,
1264.327,-73.57,,
1264.342,-76.04,,
1264.357,-210.0,,
1264.372,-210.0,,
1264.387,-210.0,,
1264.402,-210.0,,
1264.417,-210.0,,
1264.432,-210.0,,
1264.447,-210.0,,
1264.462,-210.0,,
1264.477,-210.0,,
1264.492,-210.0,,
1264.507,-210.0,,
1264.522,-210.0,,
1264.537,-210.0,,
1264.552,-70.92,,
1264.567,-210.0,,
1264.582,-210.0,,
1264.597,-210.0,,
1264.612,-210.0,,
1264.627,-74.84,,
1264.642,-77.58,,
1264.657,-210.0,,
1264.672,-210.0,,
1264.687,-67.67,,
1264.702,-66.48,,
1264.717,-67.12,,
1264.732,-67.43,,
1264.747,-210.0,,
1264.762,-73.27,,
1264.777,-68.64,,
1264.792,-68.28,,
1264.807,-72.22,,
1264.822,-210.0,,
1264.837,-210.0,,
1264.852,-77.09,,
1264.867,-210.0,,
1264.882,-210.0,,
1264.897,-210.0,,
1264.912,-210.0,,
1264.927,-210.0,,
1264.942,-73.52,,
1264.957,-76.11,,
1264.972,-210.0,,
1264.987,-210.0,,
1265.002,-67.09,,
1265.017,-65.48,,
1265.032,-65.94,,
1265.047,-68.58,,
1265.062,-66.3,,
1265.077,-63.73,,
1265.092,-63.15,,
1265.107,-64.15,,
1265.122,-64.7,,
1265.137,-63.46,,
1265.152,-63.1,,
1265.167,-62.87,,
1265.182,-62.67,,
1265.197,-64.57,,
1265.212,-65.35,,
1265.227,-64.28,,
1265.242,-64.15,,
1265.257,-64.01,,
1265.272,-66.44,,
1265.287,-66.02,,
1265.302,-65.84,,
1265.317,-65.47,,
1265.332,-65.44,,
1265.347,-66.02,,
1265.362,-66.68,,
1265.377,-66.33,,
1265.392,-63.76,,
1265.407,-63.46,,
1265.422,-64.73,,
1265.437,-65.16,,
1265.452,-64.57,,
1265.467,-63.93,,
1265.482,-63.84,,
1265.497,-64.98,,
1265.512,-66.6,,
1265.527,-64.35,,
1265.542,-63.85,,
1265.557,-64.5,,
1265.572,-65.27,,
1265.587,-65.75,,
1265.602,-65.38,,
1265.617,-64.36,,
1265.632,-64.79,,
1265.647,-68.28,,
1265.662,-71.55,,
1265.677,-68.37,,
1265.692,-66.44,,
1265.707,-66.27,,
1265.722,-66.79,,
1265.737,-70.41,,
1265.752,-69.37,,
1265.767,-64.93,,
1265.782,-65.44,,
1265.797,-65.49,,
1265.812,-66.95,,
1265.827,-65.74,,
1265.842,-64.25,,
1265.857,-64.29,,
1265.872,-65.09,,
1265.887,-64.76,,
1265.902,-64.86,,
1265.917,-65.16,,
1265.932,-65.47,,
1265.947,-65.13,,
1265.962,-68.82,,
1265.977,-66.55,,
1265.992,-66.7,,
1266.007,-66.52,,
1266.022,-67.47,,
1266.037,-210.0,,
1266.052,-210.0,,
1266.067,-210.0,,
1266.082,-78.51,,
1266.097,-210.0,,
1266.112,-210.0,,
1266.127,-210.0,,
1266.142,-210.0,,
1266.157,-76.29,,
1266.172,-210.0,,
1266.187,-210.0,,
1266.202,-210.0,,
1266.217,-210.0,,
1266.232,-75.91,,
1266.247,-70.78,,
1266.262,-210.0,,
1266.277,-210.0,,
1266.292,-68.43,,
1266.307,-65.52,,
1266.322,-66.1,,
1266.337,-69.17,,
1266.352,-74.08,,
1266.367,-72.63,,
1266.382,-66.87,,
1266.397,-67.23,,
1266.412,-80.6,,
1266.427,-210.0,,
1266.442,-73.22,,
1266.457,-69.01,,
1266.472,-67.53,,
1266.487,-75.91,,
1266.502,-79.68,,
1266.517,-210.0,,
1266.532,-71.77,,
1266.547,-83.94,,
1266.562,-83.33,,
1266.577,-210.0,,
1266.592,-210.0,,
1266.607,-68.8,,
1266.622,-71.0,,
1266.637,-77.89,,
1266.652,-73.72,,
1266.667,-67.17,,
1266.682,-64.79,,
1266.697,-64.51,,
1266.712,-65.4,,
1266.727,-68.51,,
1266.742,-66.28,,
1266.757,-64.41,,
1266.772,-65.03,,
1266.787,-66.31,,
1266.802,-70.43,,
1266.817,-66.1,,
1266.832,-65.64,,
1266.847,-65.68,,
1266.862,-69.45,,
1266.877,-69.99,,
1266.892,-67.41,,
1266.907,-65.71,,
1266.922,-63.92,,
1266.937,-66.21,,
1266.952,-67.1,,
1266.967,-65.49,,
1266.982,-63.73,,
1266.997,-63.31,,
1267.012,-65.24,,
1267.027,-65.44,,
1267.042,-64.07,,
1267.057,-62.34,,
1267.072,-62.82,,
1267.087,-64.39,,
1267.102,-64.98,,
1267.117,-64.44,,
1267.132,-62.78,,
1267.147,-64.19,,
1267.162,-65.59,,
1267.177,-67.2,,
1267.192,-65.44,,
1267.207,-63.58,,
1267.222,-64.59,,
1267.237,-64.43,,
1267.252,-66.11,,
1267.267,-64.15,,
1267.282,-63.48,,
1267.297,-65.8,,
1267.312,-68.53,,
1267.327,-71.65,,
1267.342,-66.38,,
1267.357,-66.45,,
1267.372,-66.82,,
1267.387,-72.01,,
1267.402,-76.45,,
1267.417,-67.06,,
1267.432,-67.62,,
1267.447,-67.01,,
1267.462,-75.88,,
1267.477,-75.85,,
1267.492,-70.25,,
1267.507,-76.29,,
1267.522,-69.33,,
1267.537,-210.0,,
1267.552,-71.64,,
1267.567,-75.2,,
1267.582,-67.04,,
1267.597,-68.96,,
1267.612,-73.8,,
1267.627,-68.78,,
1267.642,-69.0,,
1267.657,-66.82,,
1267.672,-73.0,,
1267.687,-72.38,,
1267.702,-78.26,,
1267.717,-72.69,,
1267.732,-69.26,,
1267.747,-94.21,,
1267.762,-85.49,,
1267.777,-210.0,,
1267.792,-71.92,,
1267.807,-73.28,,
1267.822,-210.0,,
1267.837,-210.0,,
1267.852,-210.0,,
1267.867,-71.44,,
1267.882,-78.42,,
1267.897,-210.0,,
1267.912,-73.97,,
1267.927,-210.0,,
1267.942,-68.25,,
1267.957,-72.06,,
1267.972,-69.73,,
1267.987,-71.9,,
1268.002,-69.83,,
1268.017,-66.27,,
1268.032,-70.57,,
1268.047,-67.83,,
1268.062,-70.85,,
1268.077,-66.65,,
1268.092,-65.75,,
1268.107,-65.52,,
1268.122,-65.21,,
1268.137,-66.91,,
1268.152,-64.83,,
1268.167,-64.83,,
1268.182,-64.68,,
1268.197,-66.96,,
1268.212,-67.09,,
1268.227,-64.96,,
1268.242,-65.42,,
1268.257,-65.41,,
1268.272,-67.39,,
1268.287,-66.62,,
1268.302,-65.79,,
1268.317,-65.73,,
1268.332,-66.32,,
1268.347,-67.85,,
1268.362,-67.46,,
1268.377,-65.65,,
1268.392,-65.63,,
1268.407,-66.67,,
1268.422,-69.16,,
1268.437,-66.09,,
1268.452,-66.95,,
1268.467,-65.92,,
1268.482,-69.41,,
1268.497,-69.73,,
1268.512,-65.44,,
1268.527,-65.31,,
1268.542,-63.95,,
1268.557,-65.94,,
1268.572,-65.21,,
1268.587,-65.19,,
1268.602,-65.04,,
1268.617,-64.74,,
1268.632,-67.59,,
1268.647,-66.04,,
1268.662,-65.97,,
1268.677,-63.91,,
1268.692,-64.38,,
1268.707,-65.79,,
1268.722,-65.73,,
1268.737,-65.97,,
1268.752,-63.56,,
1268.767,-64.84,,
1268.782,-66.06,,
1268.797,-66.37,,
1268.812,-64.9,,
1268.827,-63.08,,
1268.842,-64.89,,
1268.857,-64.78,,
1268.872,-64.25,,
1268.887,-63.11,,
1268.902,-62.3,,
1268.917,-63.7,,
1268.932,-64.44,,
1268.947,-66.5,,
1268.962,-63.94,,
1268.977,-63.31,,
1268.992,-64.33,,
1269.007,-65.22,,
1269.022,-67.83,,
1269.037,-64.8,,
1269.052,-65.02,,
1269.067,-67.52,,
1269.082,-69.51,,
1269.097,-72.07,,
1269.112,-67.03,,
1269.127,-68.31,,
1269.142,-71.68,,
1269.157,-210.0,,
1269.172,-210.0,,
1269.188,-69.45,,
1269.202,-67.65,,
1269.217,-71.63,,
1269.232,-210.0,,
1269.247,-74.14,,
1269.262,-72.12,,
1269.277,-73.16,,
1269.292,-210.0,,
1269.307,-210.0,,
1269.323,-75.31,,
1269.338,-70.37,,
1269.352,-74.05,,
1269.367,-210.0,,
1269.382,-210.0,,
1269.397,-82.4,,
1269.412,-69.66,,
1269.427,-68.1,,
1269.443,-88.82,,
1269.458,-210.0,,
1269.473,-69.27,,
1269.487,-67.29,,
1269.502,-66.41,,
1269.517,-71.74,,
1269.532,-68.7,,
1269.547,-69.31,,
1269.563,-65.68,,
1269.578,-66.22,,
1269.593,-74.57,,
1269.608,-69.62,,
1269.623,-66.77,,
1269.637,-64.91,,
1269.652,-66.32,,
1269.667,-69.15,,
1269.682,-68.13,,
1269.698,-66.67,,
1269.713,-65.0,,
1269.728,-66.56,,
1269.743,-70.19,,
1269.758,-71.52,,
1269.772,-68.36,,
1269.787,-66.39,,
1269.802,-67.66,,
1269.818,-70.56,,
1269.833,-70.66,,
1269.848,-67.78,,
1269.863,-65.82,,
1269.878,-70.13,,
1269.893,-71.63,,
1269.908,-210.0,,
1269.922,-73.57,,
1269.938,-70.17,,
1269.953,-67.71,,
1269.968,-69.94,,
1269.983,-210.0,,
1269.998,-71.55,,
1270.013,-71.72,,
1270.028,-73.13,,
1270.043,-210.0,,
1270.058,-210.0,,
1270.073,-70.47,,
1270.088,-72.76,,
1270.103,-210.0,,
1270.118,-210.0,,
1270.133,-210.0,,
1270.148,-210.0,,
1270.163,-77.52,,
1270.178,-71.98,,
1270.193,-210.0,,
1270.208,-210.0,,
1270.223,-76.86,,
1270.238,-69.47,,
1270.253,-70.1,,
1270.268,-210.0,,
1270.283,-71.8,,
1270.298,-68.31,,
1270.313,-67.21,,
1270.328,-69.47,,
1270.343,-84.79,,
1270.358,-68.75,,
1270.373,-66.3,,
1270.388,-65.5,,
1270.403,-67.69,,
1270.418,-76.41,,
1270.433,-73.65,,
1270.448,-67.92,,
1270.463,-65.73,,
1270.478,-69.96,,
1270.493,-73.3,,
1270.508,-71.07,,
1270.523,-67.45,,
1270.538,-66.59,,
1270.553,-68.4,,
1270.568,-81.51,,
1270.583,-69.57,,
1270.598,-66.53,,
1270.613,-65.84,,
1270.628,-70.1,,
1270.643,-73.19,,
1270.658,-210.0,,
1270.673,-68.81,,
1270.688,-69.39,,
1270.703,-210.0,,
1270.718,-210.0,,
1270.733,-210.0,,
1270.748,-210.0,,
1270.763,-210.0,,
1270.778,-210.0,,
1270.793,-210.0,,
1270.808,-210.0,,
1270.823,-210.0,,
1270.838,-210.0,,
1270.853,-210.0,,
1270.868,-210.0,,
1270.883,-210.0,,
1270.898,-210.0,,
1270.913,-210.0,,
1270.928,-210.0,,
1270.943,-210.0,,
1270.958,-210.0,,
1270.973,-210.0,,
1270.988,-210.0,,
1271.003,-210.0,,
1271.018,-210.0,,
1271.033,-210.0,,
1271.048,-210.0,,
1271.063,-210.0,,
1271.078,-210.0,,
1271.093,-210.0,,
1271.108,-210.0,,
1271.123,-68.36,,
1271.138,-65.65,,
1271.153,-68.92,,
1271.168,-73.7,,
1271.183,-72.21,,
1271.198,-67.51,,
1271.213,-65.79,,
1271.228,-69.02,,
1271.243,-71.2,,
1271.258,-68.85,,
1271.273,-65.81,,
1271.288,-66.77,,
1271.303,-70.08,,
1271.318,-69.98,,
1271.333,-68.37,,
1271.348,-65.22,,
1271.363,-65.61,,
1271.378,-67.78,,
1271.393,-69.03,,
1271.408,-69.35,,
1271.423,-64.62,,
1271.438,-64.16,,
1271.453,-67.86,,
1271.468,-69.5,,
1271.483,-70.58,,
1271.498,-64.8,,
1271.513,-65.7,,
1271.528,-69.83,,
1271.543,-69.21,,
1271.558,-69.28,,
1271.573,-65.25,,
1271.588,-68.96,,
1271.603,-74.14,,
1271.618,-72.53,,
1271.633,-68.91,,
1271.648,-67.68,,
1271.663,-67.38,,
1271.678,-70.0,,
1271.693,-69.2,,
1271.708,-66.33,,
1271.723,-64.89,,
1271.738,-65.14,,
1271.753,-64.98,,
1271.768,-66.9,,
1271.783,-64.35,,
1271.798,-64.11,,
1271.813,-64.17,,
1271.828,-64.73,,
1271.843,-65.91,,
1271.858,-63.87,,
1271.873,-63.9,,
1271.888,-64.54,,
1271.903,-64.08,,
1271.918,-64.71,,
1271.933,-63.37,,
1271.948,-62.94,,
1271.963,-63.59,,
1271.978,-64.26,,
1271.993,-63.37,,
1272.008,-63.38,,
1272.023,-63.08,,
1272.038,-63.51,,
1272.053,-64.02,,
1272.068,-63.05,,
1272.083,-62.78,,
1272.098,-62.81,,
1272.113,-63.43,,
1272.128,-63.36,,
1272.143,-63.94,,
1272.158,-62.81,,
1272.173,-62.77,,
1272.188,-63.13,,
1272.203,-62.89,,
1272.218,-62.98,,
1272.233,-62.57,,
1272.248,-62.31,,
1272.263,-62.88,,
1272.278,-63.03,,
1272.293,-62.65,,
1272.308,-62.65,,
1272.323,-62.91,,
1272.338,-62.69,,
1272.353,-62.96,,
1272.368,-62.74,,
1272.383,-62.92,,
1272.398,-62.91,,
1272.413,-61.8,,
1272.428,-61.86,,
1272.443,-62.34,,
1272.458,-61.87,,
1272.473,-62.37,,
1272.488,-61.15,,
1272.503,-61.58,,
1272.518,-61.78,,
1272.533,-61.54,,
1272.548,-61.38,,
1272.563,-61.09,,
1272.578,-61.17,,
1272.593,-61.1,,
1272.608,-61.11,,
1272.623,-61.14,,
1272.638,-60.85,,
1272.653,-60.87,,
1272.668,-60.91,,
1272.683,-60.67,,
1272.698,-60.43,,
1272.713,-60.77,,
1272.728,-60.86,,
1272.743,-60.84,,
1272.758,-60.95,,
1272.773,-60.22,,
1272.788,-60.69,,
1272.803,-60.57,,
1272.818,-60.64,,
1272.833,-60.51,,
1272.848,-59.93,,
1272.863,-60.22,,
1272.878,-59.97,,
1272.893,-59.79,,
1272.908,-60.08,,
1272.923,-59.8,,
1272.938,-60.17,,
1272.953,-60.08,,
1272.968,-60.14,,
1272.983,-60.26,,
1272.998,-59.96,,
1273.013,-60.4,,
1273.028,-60.29,,
1273.043,-60.45,,
1273.058,-60.24,,
1273.073,-59.84,,
1273.088,-59.94,,
1273.103,-59.69,,
1273.118,-59.92,,
1273.133,-59.94,,
1273.148,-59.92,,
1273.163,-60.17,,
1273.178,-59.94,,
1273.193,-60.2,,
1273.208,-59.95,,
1273.223,-60.06,,
1273.238,-60.03,,
1273.253,-60.04,,
1273.268,-60.39,,
1273.283,-60.34,,
1273.298,-60.3,,
1273.313,-60.18,,
1273.328,-59.91,,
1273.343,-60.32,,
1273.358,-60.05,,
1273.373,-60.2,,
1273.388,-59.74,,
1273.403,-59.77,,
1273.418,-60.26,,
1273.433,-60.14,,
1273.448,-60.42,,
1273.463,-60.17,,
1273.478,-60.21,,
1273.493,-60.31,,
1273.508,-60.17,,
1273.523,-60.66,,
1273.538,-60.01,,
1273.553,-60.69,,
1273.568,-60.59,,
1273.583,-60.65,,
1273.598,-61.34,,
1273.613,-60.88,,
1273.628,-61.46,,
1273.643,-61.44,,
1273.658,-61.48,,
1273.673,-61.83,,
1273.688,-61.51,,
1273.703,-62.38,,
1273.718,-61.79,,
1273.733,-62.1,,
1273.748,-61.35,,
1273.763,-61.7,,
1273.778,-62.45,,
1273.793,-61.84,,
1273.808,-62.5,,
1273.823,-61.66,,
1273.838,-62.19,,
1273.853,-62.75,,
1273.868,-62.46,,
1273.883,-62.82,,
1273.898,-62.24,,
1273.913,-62.4,,
1273.928,-62.91,,
1273.943,-62.35,,
1273.958,-62.74,,
1273.973,-61.97,,
1273.988,-62.35,,
1274.003,-62.3,,
1274.018,-61.82,,
1274.033,-62.41,,
1274.048,-61.86,,
1274.063,-62.53,,
1274.078,-62.72,,
1274.093,-63.05,,
1274.108,-64.01,,
1274.123,-63.16,,
1274.138,-63.98,,
1274.153,-63.21,,
1274.168,-63.72,,
1274.183,-64.99,,
1274.198,-64.19,,
1274.213,-65.51,,
1274.228,-64.97,,
1274.243,-65.72,,
1274.258,-67.36,,
1274.273,-66.48,,
1274.288,-66.86,,
1274.303,-66.03,,
1274.318,-67.24,,
1274.333,-71.08,,
1274.348,-71.02,,
1274.363,-69.42,,
1274.378,-69.12,,
1274.393,-210.0,,
1274.408,-74.04,,
1274.423,-77.04,,
1274.438,-75.07,,
1274.453,-71.88,,
1274.468,-210.0,,
1274.483,-72.45,,
1274.498,-210.0,,
1274.513,-210.0,,
1274.528,-210.0,,
1274.543,-210.0,,
1274.558,-210.0,,
1274.573,-210.0,,
1274.588,-210.0,,
1274.603,-210.0,,
1274.618,-210.0,,
1274.633,-210.0,,
1274.648,-210.0,,
1274.663,-210.0,,
1274.678,-210.0,,
1274.693,-210.0,,
1274.708,-210.0,,
1274.723,-210.0,,
1274.738,-210.0,,
1274.753,-210.0,,
1274.768,-210.0,,
1274.783,-210.0,,
1274.798,-210.0,,
1274.813,-210.0,,
1274.828,-210.0,,
1274.843,-210.0,,
1274.858,-210.0,,
1274.873,-210.0,,
1274.888,-210.0,,
1274.903,-210.0,,
1274.918,-210.0,,
1274.933,-210.0,,
1274.948,-210.0,,
1274.963,-210.0,,
1274.978,-210.0,,
1274.993,-210.0,,
1275.008,-210.0,,
1275.023,-210.0,,
1275.038,-210.0,,
1275.053,-210.0,,
1275.068,-210.0,,
1275.083,-210.0,,
1275.098,-210.0,,
1275.113,-210.0,,
1275.128,-210.0,,
1275.143,-210.0,,
1275.158,-210.0,,
1275.173,-210.0,,
1275.188,-210.0,,
1275.203,-210.0,,
1275.218,-210.0,,
1275.233,-210.0,,
1275.248,-210.0,,
1275.263,-210.0,,
1275.278,-210.0,,
1275.293,-210.0,,
1275.308,-210.0,,
1275.323,-210.0,,
1275.338,-210.0,,
1275.353,-210.0,,
1275.368,-210.0,,
1275.383,-210.0,,
1275.398,-210.0,,
1275.413,-210.0,,
1275.428,-210.0,,
1275.443,-210.0,,
1275.458,-210.0,,
1275.473,-210.0,,
1275.488,-210.0,,
1275.503,-210.0,,
1275.518,-210.0,,
1275.533,-210.0,,
1275.548,-210.0,,
1275.563,-210.0,,
1275.578,-84.48,,
1275.593,-210.0,,
1275.608,-77.73,,
1275.623,-210.0,,
1275.638,-69.32,,
1275.653,-67.71,,
1275.668,-67.94,,
1275.683,-66.71,,
1275.698,-69.87,,
1275.713,-66.95,,
1275.728,-69.08,,
1275.743,-68.49,,
1275.758,-66.28,,
1275.773,-67.82,,
1275.788,-65.43,,
1275.803,-66.24,,
1275.818,-64.92,,
1275.833,-64.42,,
1275.848,-66.98,,
1275.863,-65.41,,
1275.878,-67.02,,
1275.893,-65.22,,
1275.908,-63.45,,
1275.923,-65.79,,
1275.938,-64.67,,
1275.953,-66.65,,
1275.968,-65.06,,
1275.983,-64.26,,
1275.998,-65.9,,
1276.013,-64.47,,
1276.028,-65.73,,
1276.043,-64.27,,
1276.058,-64.73,,
1276.073,-64.38,,
1276.088,-64.05,,
1276.103,-65.42,,
1276.118,-63.21,,
1276.133,-63.72,,
1276.148,-64.23,,
1276.163,-64.4,,
1276.178,-64.52,,
1276.193,-63.09,,
1276.208,-63.94,,
1276.223,-64.38,,
1276.238,-63.8,,
1276.253,-63.11,,
1276.268,-61.94,,
1276.283,-62.37,,
1276.298,-63.4,,
1276.313,-63.08,,
1276.328,-62.45,,
1276.343,-61.9,,
1276.358,-62.57,,
1276.373,-62.55,,
1276.388,-63.3,,
1276.403,-62.82,,
1276.418,-62.3,,
1276.433,-63.59,,
1276.448,-63.23,,
1276.463,-64.36,,
1276.478,-63.66,,
1276.493,-63.4,,
1276.508,-64.29,,
1276.523,-63.68,,
1276.538,-64.02,,
1276.553,-62.76,,
1276.568,-62.83,,
1276.583,-63.86,,
1276.598,-63.47,,
1276.613,-63.69,,
1276.628,-62.62,,
1276.643,-63.28,,
1276.658,-64.33,,
1276.673,-63.76,,
1276.688,-64.56,,
1276.703,-62.8,,
1276.718,-64.08,,
1276.733,-63.5,,
1276.748,-63.47,,
1276.763,-64.05,,
1276.778,-63.01,,
1276.793,-64.6,,
1276.808,-63.53,,
1276.823,-64.3,,
1276.838,-64.94,,
1276.853,-63.29,,
1276.868,-64.4,,
1276.883,-63.21,,
1276.898,-63.48,,
1276.913,-64.58,,
1276.928,-64.06,,
1276.943,-64.99,,
1276.958,-63.63,,
1276.973,-64.22,,
1276.988,-65.4,,
1277.003,-64.18,,
1277.018,-65.38,,
1277.033,-64.69,,
1277.048,-65.13,,
1277.063,-66.13,,
1277.078,-64.85,,
1277.093,-66.82,,
1277.108,-64.88,,
1277.123,-65.39,,
1277.138,-67.67,,
1277.153,-64.71,,
1277.168,-64.23,,
1277.183,-63.28,,
1277.198,-63.69,,
1277.214,-64.7,,
1277.228,-62.76,,
1277.243,-62.74,,
1277.258,-62.75,,
1277.273,-63.9,,
1277.288,-65.16,,
1277.303,-63.06,,
1277.318,-62.98,,
1277.333,-63.23,,
1277.349,-64.9,,
1277.364,-64.14,,
1277.378,-63.86,,
1277.393,-63.38,,
1277.408,-63.45,,
1277.423,-64.42,,
1277.438,-63.27,,
1277.453,-62.99,,
1277.469,-62.57,,
1277.484,-65.0,,
1277.499,-65.9,,
1277.514,-64.09,,
1277.528,-63.77,,
1277.543,-64.48,,
1277.558,-67.11,,
1277.573,-66.65,,
1277.589,-63.86,,
1277.604,-63.73,,
1277.619,-65.43,,
1277.634,-67.56,,
1277.649,-67.2,,
1277.663,-64.59,,
1277.678,-65.62,,
1277.693,-68.57,,
1277.708,-73.8,,
1277.724,-67.08,,
1277.739,-65.04,,
1277.754,-66.02,,
1277.769,-69.07,,
1277.784,-69.9,,
1277.799,-64.52,,
1277.813,-63.81,,
1277.828,-63.89,,
1277.844,-65.03,,
1277.859,-64.93,,
1277.874,-62.54,,
1277.889,-62.23,,
1277.904,-62.73,,
1277.919,-64.02,,
1277.934,-62.72,,
1277.948,-61.4,,
1277.964,-61.28,,
1277.979,-61.61,,
1277.994,-62.09,,
1278.009,-61.44,,
1278.024,-60.81,,
1278.039,-61.69,,
1278.054,-62.63,,
1278.069,-62.57,,
1278.084,-62.0,,
1278.099,-61.21,,
1278.114,-62.26,,
1278.129,-63.33,,
1278.144,-62.75,,
1278.159,-62.09,,
1278.174,-62.53,,
1278.189,-64.38,,
1278.204,-66.96,,
1278.219,-64.38,,
1278.234,-63.57,,
1278.249,-65.2,,
1278.264,-68.87,,
1278.279,-72.54,,
1278.294,-66.15,,
1278.309,-65.74,,
1278.324,-68.34,,
1278.339,-79.05,,
1278.354,-67.74,,
1278.369,-66.23,,
1278.384,-66.23,,
1278.399,-68.39,,
1278.414,-72.27,,
1278.429,-67.22,,
1278.444,-65.69,,
1278.459,-66.44,,
1278.474,-71.36,,
1278.489,-66.57,,
1278.504,-64.3,,
1278.519,-63.64,,
1278.534,-64.64,,
1278.549,-65.9,,
1278.564,-63.88,,
1278.579,-62.89,,
1278.594,-63.58,,
1278.609,-64.93,,
1278.624,-65.64,,
1278.639,-64.14,,
1278.654,-62.93,,
1278.669,-64.28,,
1278.684,-65.29,,
1278.699,-64.7,,
1278.714,-63.46,,
1278.729,-63.35,,
1278.744,-65.73,,
1278.759,-67.57,,
1278.774,-66.45,,
1278.789,-64.26,,
1278.804,-65.45,,
1278.819,-69.03,,
1278.834,-210.0,,
1278.849,-71.88,,
1278.864,-67.23,,
1278.879,-71.76,,
1278.894,-210.0,,
1278.909,-210.0,,
1278.924,-210.0,,
1278.939,-76.31,,
1278.954,-210.0,,
1278.969,-210.0,,
1278.984,-210.0,,
1278.999,-210.0,,
1279.014,-210.0,,
1279.029,-210.0,,
1279.044,-210.0,,
1279.059,-210.0,,
1279.074,-72.22,,
1279.089,-73.49,,
1279.104,-210.0,,
1279.119,-210.0,,
1279.134,-69.07,,
1279.149,-67.45,,
1279.164,-70.1,,
1279.179,-210.0,,
1279.194,-71.51,,
1279.209,-65.62,,
1279.224,-65.8,,
1279.239,-67.91,,
1279.254,-70.07,,
1279.269,-67.06,,
1279.284,-64.47,,
1279.299,-65.42,,
1279.314,-66.09,,
1279.329,-69.31,,
1279.344,-66.5,,
1279.359,-65.96,,
1279.374,-66.76,,
1279.389,-67.75,,
1279.404,-70.11,,
1279.419,-67.63,,
1279.434,-66.73,,
1279.449,-71.25,,
1279.464,-210.0,,
1279.479,-80.03,,
1279.494,-73.34,,
1279.509,-70.06,,
1279.524,-210.0,,
1279.539,-210.0,,
1279.554,-79.36,,
1279.569,-76.71,,
1279.584,-210.0,,
1279.599,-210.0,,
1279.614,-210.0,,
1279.629,-210.0,,
1279.644,-75.32,,
1279.659,-210.0,,
1279.674,-210.0,,
1279.689,-210.0,,
1279.704,-77.86,,
1279.719,-71.61,,
1279.734,-210.0,,
1279.749,-210.0,,
1279.764,-71.25,,
1279.779,-66.61,,
1279.794,-67.21,,
1279.809,-72.24,,
1279.824,-71.96,,
1279.839,-66.14,,
1279.854,-65.4,,
1279.869,-66.09,,
1279.884,-68.72,,
1279.899,-66.38,,
1279.914,-65.6,,
1279.929,-65.75,,
1279.944,-66.5,,
1279.959,-70.58,,
1279.974,-66.1,,
1279.989,-67.05,,
1280.004,-68.11,,
1280.019,-76.73,,
1280.034,-210.0,,
1280.049,-71.07,,
1280.064,-71.56,,
1280.079,-74.46,,
1280.094,-210.0,,
1280.109,-210.0,,
1280.124,-69.75,,
1280.139,-74.3,,
1280.154,-210.0,,
1280.169,-210.0,,
1280.184,-210.0,,
1280.199,-210.0,,
1280.214,-210.0,,
1280.229,-210.0,,
1280.244,-210.0,,
1280.259,-210.0,,
1280.274,-210.0,,
1280.289,-210.0,,
1280.304,-210.0,,
1280.319,-210.0,,
1280.334,-210.0,,
1280.349,-71.49,,
1280.364,-210.0,,
1280.379,-210.0,,
1280.394,-210.0,,
1280.409,-70.81,,
1280.424,-66.77,,
1280.439,-71.86,,
1280.454,-210.0,,
1280.469,-68.11,,
1280.484,-65.84,,
1280.499,-65.1,,
1280.514,-69.56,,
1280.529,-69.88,,
1280.544,-65.34,,
1280.559,-65.31,,
1280.574,-65.51,,
1280.589,-70.7,,
1280.604,-66.25,,
1280.619,-65.63,,
1280.634,-64.86,,
1280.649,-67.9,,
1280.664,-72.12,,
1280.679,-65.66,,
1280.694,-65.95,,
1280.709,-66.97,,
1280.724,-72.49,,
1280.739,-73.18,,
1280.754,-66.19,,
1280.769,-66.79,,
1280.784,-72.05,,
1280.799,-85.54,,
1280.814,-73.79,,
1280.829,-65.99,,
1280.844,-66.98,,
1280.859,-71.22,,
1280.874,-70.23,,
1280.889,-67.34,,
1280.904,-65.51,,
1280.919,-67.4,,
1280.934,-69.92,,
1280.949,-68.46,,
1280.964,-64.95,,
1280.979,-64.71,,
1280.994,-65.98,,
1281.009,-68.13,,
1281.024,-65.54,,
1281.039,-63.31,,
1281.054,-62.66,,
1281.069,-63.14,,
1281.084,-64.07,,
1281.099,-62.82,,
1281.114,-61.87,,
1281.129,-61.72,,
1281.144,-62.64,,
1281.159,-62.72,,
1281.174,-61.93,,
1281.189,-61.22,,
1281.204,-62.17,,
1281.219,-62.96,,
1281.234,-62.54,,
1281.249,-61.9,,
1281.264,-61.8,,
1281.279,-63.34,,
1281.294,-63.88,,
1281.309,-63.59,,
1281.324,-62.29,,
1281.339,-62.91,,
1281.354,-64.9,,
1281.369,-65.49,,
1281.384,-63.88,,
1281.399,-63.64,,
1281.414,-64.66,,
1281.429,-67.47,,
1281.444,-65.8,,
1281.459,-63.69,,
1281.474,-63.54,,
1281.489,-64.67,,
1281.504,-66.79,,
1281.519,-64.52,,
1281.534,-62.93,,
1281.549,-63.79,,
1281.564,-64.92,,
1281.579,-65.62,,
1281.594,-63.44,,
1281.609,-64.1,,
1281.624,-64.14,,
1281.639,-66.36,,
1281.654,-64.28,,
1281.669,-63.08,,
1281.684,-64.49,,
1281.699,-65.07,,
1281.714,-65.91,,
1281.729,-64.43,,
1281.744,-62.79,,
1281.759,-64.22,,
1281.774,-65.62,,
1281.789,-64.82,,
1281.804,-64.56,,
1281.819,-63.34,,
1281.834,-64.92,,
1281.849,-66.37,,
1281.864,-64.04,,
1281.879,-64.12,,
1281.894,-64.02,,
1281.909,-65.49,,
1281.924,-66.39,,
1281.939,-63.75,,
1281.954,-64.29,,
1281.969,-65.41,,
1281.984,-68.71,,
1281.999,-67.59,,
1282.014,-64.42,,
1282.029,-64.96,,
1282.044,-65.58,,
1282.059,-72.1,,
1282.074,-69.57,,
1282.089,-65.73,,
1282.104,-68.8,,
1282.119,-71.26,,
1282.134,-210.0,,
1282.149,-74.28,,
1282.164,-68.42,,
1282.179,-77.05,,
1282.194,-210.0,,
1282.209,-71.18,,
1282.224,-68.47,,
1282.239,-66.61,,
1282.254,-71.21,,
1282.269,-73.29,,
1282.284,-66.25,,
1282.299,-64.34,,
1282.314,-63.59,,
1282.329,-66.56,,
1282.344,-65.92,,
1282.359,-64.23,,
1282.374,-63.92,,
1282.389,-64.52,,
1282.404,-67.26,,
1282.419,-65.13,,
1282.434,-64.05,,
1282.449,-65.82,,
1282.464,-66.44,,
1282.479,-69.41,,
1282.494,-67.56,,
1282.509,-65.62,,
1282.524,-70.36,,
1282.539,-73.49,,
1282.554,-75.03,,
1282.569,-67.47,,
1282.584,-68.14,,
1282.599,-210.0,,
1282.614,-70.24,,
1282.629,-68.95,,
1282.644,-65.47,,
1282.659,-68.14,,
1282.674,-71.04,,
1282.689,-65.93,,
1282.704,-65.71,,
1282.719,-65.42,,
1282.734,-66.58,,
1282.749,-68.9,,
1282.764,-66.46,,
1282.779,-65.35,,
1282.794,-65.38,,
1282.809,-65.67,,
1282.824,-69.31,,
1282.839,-66.39,,
1282.854,-66.25,,
1282.869,-69.55,,
1282.884,-67.81,,
1282.899,-67.76,,
1282.914,-66.48,,
1282.929,-65.15,,
1282.944,-68.93,,
1282.959,-67.62,,
1282.974,-66.7,,
1282.989,-64.11,,
1283.004,-64.67,,
1283.019,-68.03,,
1283.034,-65.81,,
1283.049,-65.35,,
1283.064,-64.54,,
1283.079,-65.97,,
1283.094,-70.0,,
1283.109,-66.87,,
1283.124,-64.74,,
1283.139,-64.89,,
1283.154,-67.44,,
1283.169,-73.11,,
1283.184,-67.74,,
1283.199,-66.52,,
1283.214,-72.16,,
1283.229,-210.0,,
1283.244,-71.69,,
1283.259,-67.62,,
1283.274,-66.11,,
1283.289,-71.6,,
1283.304,-210.0,,
1283.319,-73.92,,
1283.334,-66.66,,
1283.349,-67.77,,
1283.364,-79.7,,
1283.379,-70.36,,
1283.394,-67.89,,
1283.409,-67.32,,
1283.424,-69.39,,
1283.439,-210.0,,
1283.454,-69.58,,
1283.469,-68.12,,
1283.484,-73.24,,
1283.499,-210.0,,
1283.514,-210.0,,
1283.529,-72.45,,
1283.544,-69.36,,
1283.559,-210.0,,
1283.574,-210.0,,
1283.589,-210.0,,
1283.604,-72.69,,
1283.619,-74.4,,
1283.634,-210.0,,
1283.649,-210.0,,
1283.664,-210.0,,
1283.679,-69.61,,
1283.694,-210.0,,
1283.709,-210.0,,
1283.724,-210.0,,
1283.739,-70.52,,
1283.754,-70.56,,
1283.769,-74.21,,
1283.784,-210.0,,
1283.799,-210.0,,
1283.814,-75.93,,
1283.829,-73.35,,
1283.844,-210.0,,
1283.859,-210.0,,
1283.874,-74.24,,
1283.889,-76.18,,
1283.904,-210.0,,
1283.919,-210.0,,
1283.934,-210.0,,
1283.949,-210.0,,
1283.964,-210.0,,
1283.979,-210.0,,
1283.994,-210.0,,
1284.009,-210.0,,
1284.024,-210.0,,
1284.039,-210.0,,
1284.054,-210.0,,
1284.069,-210.0,,
1284.084,-210.0,,
1284.099,-210.0,,
1284.114,-210.0,,
1284.129,-210.0,,
1284.144,-210.0,,
1284.159,-210.0,,
1284.174,-210.0,,
1284.189,-210.0,,
1284.204,-210.0,,
1284.219,-210.0,,
1284.234,-210.0,,
1284.249,-210.0,,
1284.264,-210.0,,
1284.279,-210.0,,
1284.294,-210.0,,
1284.309,-210.0,,
1284.324,-210.0,,
1284.339,-210.0,,
1284.354,-210.0,,
1284.369,-210.0,,
1284.384,-210.0,,
1284.399,-210.0,,
1284.414,-210.0,,
1284.429,-210.0,,
1284.444,-210.0,,
1284.459,-210.0,,
1284.474,-210.0,,
1284.489,-210.0,,
1284.504,-210.0,,
1284.519,-88.53,,
1284.534,-77.43,,
1284.549,-210.0,,
1284.564,-210.0,,
1284.579,-71.91,,
1284.594,-68.59,,
1284.609,-83.19,,
1284.624,-210.0,,
1284.639,-210.0,,
1284.654,-74.97,,
1284.669,-210.0,,
1284.684,-210.0,,
1284.699,-210.0,,
1284.714,-210.0,,
1284.729,-70.97,,
1284.744,-210.0,,
1284.759,-210.0,,
1284.774,-210.0,,
1284.789,-70.26,,
1284.804,-69.15,,
1284.819,-210.0,,
1284.834,-210.0,,
1284.849,-69.19,,
1284.864,-66.71,,
1284.879,-67.79,,
1284.894,-210.0,,
1284.909,-69.74,,
1284.924,-67.03,,
1284.939,-66.65,,
1284.954,-69.57,,
1284.969,-210.0,,
1284.984,-70.06,,
1284.999,-66.19,,
1285.014,-70.48,,
1285.029,-210.0,,
1285.044,-210.0,,
1285.059,-69.43,,
1285.074,-68.22,,
1285.089,-210.0,,
1285.104,-210.0,,
1285.119,-72.4,,
1285.134,-67.62,,
1285.149,-70.19,,
1285.164,-210.0,,
1285.179,-210.0,,
1285.194,-67.24,,
1285.209,-66.22,,
1285.224,-65.27,,
1285.24,-69.01,,
1285.255,-66.97,,
1285.269,-64.93,,
1285.284,-63.42,,
1285.299,-64.07,,
1285.314,-67.28,,
1285.329,-66.82,,
1285.344,-63.85,,
1285.359,-65.96,,
1285.375,-66.76,,
1285.39,-66.46,,
1285.404,-66.62,,
1285.419,-64.13,,
1285.434,-66.13,,
1285.449,-66.21,,
1285.464,-66.6,,
1285.479,-65.09,,
1285.495,-64.43,,
1285.51,-66.4,,
1285.525,-65.73,,
1285.54,-65.61,,
1285.554,-66.24,,
1285.569,-65.42,,
1285.584,-69.18,,
1285.599,-69.81,,
1285.615,-66.42,,
1285.63,-65.63,,
1285.645,-64.59,,
1285.66,-66.16,,
1285.675,-66.04,,
1285.689,-63.93,,
1285.704,-66.61,,
1285.719,-67.25,,
1285.734,-68.48,,
1285.75,-65.61,,
1285.765,-65.1,,
1285.78,-70.02,,
1285.795,-69.31,,
1285.81,-67.59,,
1285.825,-66.0,,
1285.839,-65.26,,
1285.854,-68.75,,
1285.87,-68.33,,
1285.885,-68.5,,
1285.9,-67.64,,
1285.915,-67.68,,
1285.93,-81.68,,
1285.945,-70.45,,
1285.96,-68.13,,
1285.974,-66.75,,
1285.99,-69.19,,
1286.005,-210.0,,
1286.02,-72.43,,
1286.035,-67.58,,
1286.05,-71.5,,
1286.065,-72.67,,
1286.08,-75.42,,
1286.095,-67.79,,
1286.11,-65.64,,
1286.125,-70.29,,
1286.14,-73.88,,
1286.155,-67.9,,
1286.17,-65.53,,
1286.185,-65.01,,
1286.2,-69.67,,
1286.215,-67.6,,
1286.23,-65.7,,
1286.245,-65.28,,
1286.26,-65.89,,
1286.275,-71.31,,
1286.29,-68.66,,
1286.305,-66.53,,
1286.32,-65.49,,
1286.335,-66.6,,
1286.35,-71.46,,
1286.365,-67.06,,
1286.38,-65.63,,
1286.395,-70.87,,
1286.41,-73.47,,
1286.425,-74.72,,
1286.44,-66.85,,
1286.455,-66.65,,
1286.47,-71.52,,
1286.485,-72.66,,
1286.5,-71.51,,
1286.515,-66.07,,
1286.53,-67.02,,
1286.545,-210.0,,
1286.56,-68.56,,
1286.575,-68.6,,
1286.59,-68.94,,
1286.605,-69.25,,
1286.62,-210.0,,
1286.635,-70.08,,
1286.65,-70.75,,
1286.665,-210.0,,
1286.68,-76.48,,
1286.695,-210.0,,
1286.71,-67.56,,
1286.725,-66.96,,
1286.74,-71.56,,
1286.755,-73.7,,
1286.77,-72.4,,
1286.785,-71.01,,
1286.8,-71.34,,
1286.815,-210.0,,
1286.83,-210.0,,
1286.845,-210.0,,
1286.86,-210.0,,
1286.875,-210.0,,
1286.89,-210.0,,
1286.905,-210.0,,
1286.92,-210.0,,
1286.935,-74.61,,
1286.95,-210.0,,
1286.965,-210.0,,
1286.98,-210.0,,
1286.995,-76.68,,
1287.01,-210.0,,
1287.025,-210.0,,
1287.04,-210.0,,
1287.055,-210.0,,
1287.07,-210.0,,
1287.085,-210.0,,
1287.1,-210.0,,
1287.115,-210.0,,
1287.13,-210.0,,
1287.145,-210.0,,
1287.16,-210.0,,
1287.175,-210.0,,
1287.19,-210.0,,
1287.205,-210.0,,
1287.22,-210.0,,
1287.235,-210.0,,
1287.25,-210.0,,
1287.265,-210.0,,
1287.28,-210.0,,
1287.295,-210.0,,
1287.31,-210.0,,
1287.325,-210.0,,
1287.34,-210.0,,
1287.355,-210.0,,
1287.37,-210.0,,
1287.385,-210.0,,
1287.4,-210.0,,
1287.415,-210.0,,
1287.43,-210.0,,
1287.445,-210.0,,
1287.46,-210.0,,
1287.475,-76.46,,
1287.49,-210.0,,
1287.505,-210.0,,
1287.52,-210.0,,
1287.535,-210.0,,
1287.55,-70.8,,
1287.565,-210.0,,
1287.58,-210.0,,
1287.595,-210.0,,
1287.61,-81.98,,
1287.625,-210.0,,
1287.64,-210.0,,
1287.655,-210.0,,
1287.67,-69.37,,
1287.685,-70.32,,
1287.7,-210.0,,
1287.715,-210.0,,
1287.73,-89.9,,
1287.745,-69.0,,
1287.76,-71.77,,
1287.775,-210.0,,
1287.79,-74.72,,
1287.805,-69.08,,
1287.82,-67.09,,
1287.835,-69.72,,
1287.85,-210.0,,
1287.865,-68.37,,
1287.88,-66.1,,
1287.895,-65.94,,
1287.91,-67.64,,
1287.925,-74.86,,
1287.94,-69.45,,
1287.955,-67.54,,
1287.97,-71.62,,
1287.985,-69.16,,
1288.0,-69.56,,
1288.015,-68.13,,
1288.03,-66.68,,
1288.045,-69.62,,
1288.06,-66.95,,
1288.075,-65.48,,
1288.09,-64.98,,
1288.105,-65.11,,
1288.12,-69.33,,
1288.135,-67.41,,
1288.15,-64.94,,
1288.165,-65.85,,
1288.18,-65.61,,
1288.195,-66.16,,
1288.21,-65.6,,
1288.225,-64.32,,
1288.24,-66.88,,
1288.255,-65.68,,
1288.27,-66.68,,
1288.285,-67.08,,
1288.3,-64.97,,
1288.315,-67.42,,
1288.33,-67.29,,
1288.345,-64.77,,
1288.36,-65.02,,
1288.375,-64.65,,
1288.39,-64.13,,
1288.405,-64.33,,
1288.42,-63.28,,
1288.435,-63.6,,
1288.45,-64.28,,
1288.465,-63.63,,
1288.48,-64.78,,
1288.495,-63.65,,
1288.51,-64.03,,
1288.525,-64.2,,
1288.54,-64.2,,
1288.555,-66.53,,
1288.57,-67.04,,
1288.585,-66.85,,
1288.6,-66.91,,
1288.615,-66.32,,
1288.63,-66.33,,
1288.645,-67.44,,
1288.66,-65.4,,
1288.675,-65.33,,
1288.69,-64.44,,
1288.705,-64.46,,
1288.72,-64.87,,
1288.735,-64.65,,
1288.75,-64.87,,
1288.765,-66.38,,
1288.78,-65.72,,
1288.795,-66.15,,
1288.81,-66.03,,
1288.825,-65.27,,
1288.84,-67.62,,
1288.855,-64.69,,
1288.87,-65.52,,
1288.885,-65.92,,
1288.9,-66.59,,
1288.915,-67.24,,
1288.93,-65.05,,
1288.945,-64.98,,
1288.96,-64.11,,
1288.975,-64.32,,
1288.99,-64.17,,
1289.005,-64.22,,
1289.02,-63.7,,
1289.035,-66.12,,
1289.05,-64.3,,
1289.065,-65.22,,
1289.08,-64.67,,
1289.095,-64.07,,
1289.11,-65.26,,
1289.125,-62.92,,
1289.14,-63.38,,
1289.155,-63.48,,
1289.17,-63.64,,
1289.185,-64.12,,
1289.2,-63.61,,
1289.215,-64.14,,
1289.23,-66.05,,
1289.245,-64.45,,
1289.26,-64.94,,
1289.275,-64.38,,
1289.29,-63.73,,
1289.305,-65.09,,
1289.32,-63.59,,
1289.335,-64.44,,
1289.35,-64.29,,
1289.365,-64.42,,
1289.38,-64.51,,
1289.395,-64.6,,
1289.41,-64.27,,
1289.425,-66.26,,
1289.44,-66.16,,
1289.455,-66.61,,
1289.47,-67.08,,
1289.485,-66.98,,
1289.5,-71.33,,
1289.515,-67.75,,
1289.53,-71.74,,
1289.545,-70.01,,
1289.56,-67.58,,
1289.575,-68.16,,
1289.59,-65.98,,
1289.605,-64.58,,
1289.62,-65.46,,
1289.635,-65.12,,
1289.65,-65.55,,
1289.665,-65.33,,
1289.68,-64.83,,
1289.695,-66.94,,
1289.71,-66.21,,
1289.725,-66.75,,
1289.74,-67.47,,
1289.755,-67.5,,
1289.77,-67.78,,
1289.785,-68.28,,
1289.8,-66.21,,
1289.815,-66.84,,
1289.83,-67.2,,
1289.845,-66.08,,
1289.86,-67.24,,
1289.875,-66.06,,
1289.89,-68.14,,
1289.905,-65.94,,
1289.92,-66.08,,
1289.935,-66.45,,
1289.95,-65.2,,
1289.965,-67.03,,
1289.98,-67.87,,
1289.995,-68.54,,
1290.01,-70.79,,
1290.025,-69.23,,
1290.04,-66.41,,
1290.055,-69.94,,
1290.07,-66.94,,
1290.085,-70.44,,
1290.1,-69.25,,
1290.115,-66.95,,
1290.13,-70.88,,
1290.145,-69.68,,
1290.16,-75.64,,
1290.175,-210.0,,
1290.19,-73.88,,
1290.205,-210.0,,
1290.22,-210.0,,
1290.235,-73.6,,
1290.25,-210.0,,
1290.265,-87.82,,
1290.28,-210.0,,
1290.295,-210.0,,
1290.31,-74.98,,
1290.325,-210.0,,
1290.34,-77.48,,
1290.355,-83.83,,
1290.37,-78.0,,
1290.385,-71.73,,
1290.4,-210.0,,
1290.415,-210.0,,
1290.43,-75.78,,
1290.445,-210.0,,
1290.46,-72.0,,
1290.475,-210.0,,
1290.49,-79.48,,
1290.505,-69.37,,
1290.52,-74.62,,
1290.535,-68.26,,
1290.55,-67.41,,
1290.565,-68.28,,
1290.58,-66.57,,
1290.595,-67.03,,
1290.61,-66.98,,
1290.625,-68.06,,
1290.64,-73.33,,
1290.655,-67.81,,
1290.67,-70.87,,
1290.685,-70.89,,
1290.7,-71.35,,
1290.715,-210.0,,
1290.73,-71.25,,
1290.745,-68.39,,
1290.76,-80.87,,
1290.775,-75.31,,
1290.79,-73.07,,
1290.805,-71.83,,
1290.82,-68.82,,
1290.835,-210.0,,
1290.85,-85.34,,
1290.865,-67.71,,
1290.88,-67.0,,
1290.895,-66.2,,
1290.91,-70.48,,
1290.925,-68.24,,
1290.94,-65.79,,
1290.955,-68.21,,
1290.97,-210.0,,
1290.985,-79.0,,
1291.0,-68.86,,
1291.015,-65.41,,
1291.03,-68.53,,
1291.045,-75.15,,
1291.06,-68.39,,
1291.075,-67.67,,
1291.09,-65.66,,
1291.105,-67.54,,
1291.12,-71.78,,
1291.135,-67.21,,
1291.15,-66.09,,
1291.165,-67.68,,
1291.18,-68.06,,
1291.195,-68.74,,
1291.21,-65.12,,
1291.225,-64.56,,
1291.24,-67.61,,
1291.255,-66.23,,
1291.27,-64.73,,
1291.285,-63.92,,
1291.3,-65.04,,
1291.315,-68.9,,
1291.33,-65.48,,
1291.345,-64.92,,
1291.36,-66.65,,
1291.375,-71.85,,
1291.39,-71.45,,
1291.405,-67.39,,
1291.42,-66.72,,
1291.435,-70.45,,
1291.45,-72.22,,
1291.465,-67.45,,
1291.48,-66.06,,
1291.495,-65.64,,
1291.51,-69.43,,
1291.525,-66.57,,
1291.54,-64.7,,
1291.555,-65.54,,
1291.57,-69.33,,
1291.585,-78.12,,
1291.6,-74.11,,
1291.615,-71.18,,
1291.63,-70.83,,
1291.645,-80.8,,
1291.66,-78.83,,
1291.675,-66.96,,
1291.69,-69.48,,
1291.705,-69.29,,
1291.72,-69.77,,
1291.735,-70.76,,
1291.75,-69.99,,
1291.765,-68.13,,
1291.78,-70.22,,
1291.795,-68.39,,
1291.81,-70.28,,
1291.825,-70.25,,
1291.84,-68.47,,
1291.855,-70.55,,
1291.87,-71.58,,
1291.885,-71.47,,
1291.9,-210.0,,
1291.915,-70.55,,
1291.93,-81.38,,
1291.945,-210.0,,
1291.96,-76.32,,
1291.975,-76.45,,
1291.99,-72.73,,
1292.005,-69.12,,
1292.02,-72.36,,
1292.035,-69.94,,
1292.05,-69.31,,
1292.065,-68.11,,
1292.08,-67.2,,
1292.095,-69.83,,
1292.11,-77.99,,
1292.125,-71.08,,
1292.14,-70.62,,
1292.155,-73.05,,
1292.17,-72.63,,
1292.185,-78.21,,
1292.2,-68.07,,
1292.215,-67.83,,
1292.23,-69.02,,
1292.245,-68.05,,
1292.26,-68.81,,
1292.275,-67.35,,
1292.29,-67.58,,
1292.305,-74.0,,
1292.32,-67.57,,
1292.335,-68.14,,
1292.35,-68.16,,
1292.365,-67.03,,
1292.38,-67.28,,
1292.395,-66.07,,
1292.41,-64.89,,
1292.425,-67.74,,
1292.44,-67.93,,
1292.455,-66.59,,
1292.47,-66.36,,
1292.485,-65.87,,
1292.5,-69.88,,
1292.515,-68.84,,
1292.53,-66.11,,
1292.545,-66.61,,
1292.56,-66.2,,
1292.575,-67.12,,
1292.59,-67.73,,
1292.605,-64.55,,
1292.62,-64.21,,
1292.635,-68.63,,
1292.65,-67.43,,
1292.665,-67.17,,
1292.68,-67.4,,
1292.695,-66.27,,
1292.71,-71.45,,
1292.725,-69.24,,
1292.74,-67.43,,
1292.755,-66.58,,
1292.77,-66.9,,
1292.785,-68.89,,
1292.8,-67.24,,
1292.815,-64.39,,
1292.83,-66.24,,
1292.845,-67.46,,
1292.86,-66.68,,
1292.875,-65.21,,
1292.89,-66.07,,
1292.905,-67.48,,
1292.92,-71.81,,
1292.935,-65.27,,
1292.95,-65.13,,
1292.965,-66.33,,
1292.98,-67.68,,
1292.995,-66.23,,
1293.01,-65.9,,
1293.025,-67.23,,
1293.04,-80.08,,
1293.055,-210.0,,
1293.07,-75.51,,
1293.085,-72.92,,
1293.1,-79.34,,
1293.115,-210.0,,
1293.13,-68.92,,
1293.145,-67.58,,
1293.16,-68.49,,
1293.175,-72.36,,
1293.19,-68.93,,
1293.205,-67.11,,
1293.22,-67.0,,
1293.235,-83.72,,
1293.25,-75.74,,
1293.266,-70.69,,
1293.281,-70.25,,
1293.295,-83.46,,
1293.31,-210.0,,
1293.325,-75.15,,
1293.34,-67.5,,
1293.355,-75.63,,
1293.37,-210.0,,
1293.385,-210.0,,
1293.401,-210.0,,
1293.416,-210.0,,
1293.43,-210.0,,
1293.445,-210.0,,
1293.46,-69.21,,
1293.475,-69.89,,
1293.49,-73.49,,
1293.505,-210.0,,
1293.521,-68.93,,
1293.536,-71.03,,
1293.551,-210.0,,
1293.566,-210.0,,
1293.58,-210.0,,
1293.595,-80.08,,
1293.61,-79.94,,
1293.625,-210.0,,
1293.641,-210.0,,
1293.656,-74.58,,
1293.671,-68.9,,
1293.686,-69.75,,
1293.701,-210.0,,
1293.715,-77.05,,
1293.73,-68.79,,
1293.745,-68.17,,
1293.76,-210.0,,
1293.776,-210.0,,
1293.791,-71.2,,
1293.806,-68.6,,
1293.821,-210.0,,
1293.836,-210.0,,
1293.851,-73.59,,
1293.865,-67.32,,
1293.88,-89.36,,
1293.896,-210.0,,
1293.911,-210.0,,
1293.926,-72.07,,
1293.941,-210.0,,
1293.956,-210.0,,
1293.971,-210.0,,
1293.986,-210.0,,
1294.001,-73.81,,
1294.016,-210.0,,
1294.031,-210.0,,
1294.046,-73.85,,
1294.061,-66.49,,
1294.076,-66.25,,
1294.091,-67.2,,
1294.106,-71.93,,
1294.121,-66.1,,
1294.136,-67.18,,
1294.151,-71.82,,
1294.166,-79.11,,
1294.181,-69.36,,
1294.196,-65.77,,
1294.211,-66.72,,
1294.226,-73.87,,
1294.241,-67.35,,
1294.256,-66.63,,
1294.271,-65.28,,
1294.286,-70.04,,
1294.301,-77.51,,
1294.316,-67.3,,
1294.331,-66.4,,
1294.346,-77.6,,
1294.361,-71.6,,
1294.376,-67.34,,
1294.391,-64.71,,
1294.406,-64.14,,
1294.421,-67.33,,
1294.436,-65.96,,
1294.451,-64.28,,
1294.466,-64.77,,
1294.481,-67.36,,
1294.496,-68.14,,
1294.511,-65.41,,
1294.526,-65.26,,
1294.541,-66.84,,
1294.556,-68.34,,
1294.571,-66.66,,
1294.586,-64.37,,
1294.601,-66.47,,
1294.616,-68.96,,
1294.631,-68.9,,
1294.646,-65.96,,
1294.661,-65.44,,
1294.676,-67.79,,
1294.691,-69.15,,
1294.706,-65.27,,
1294.721,-64.35,,
1294.736,-65.15,,
1294.751,-66.68,,
1294.766,-64.72,,
1294.781,-63.71,,
1294.796,-64.25,,
1294.811,-66.4,,
1294.826,-67.14,,
1294.841,-65.16,,
1294.856,-65.39,,
1294.871,-68.19,,
1294.886,-67.15,,
1294.901,-64.75,,
1294.916,-63.43,,
1294.931,-63.44,,
1294.946,-64.89,,
1294.961,-63.86,,
1294.976,-63.08,,
1294.991,-63.37,,
1295.006,-64.91,,
1295.021,-64.51,,
1295.036,-63.45,,
1295.051,-63.03,,
1295.066,-64.56,,
1295.081,-65.17,,
1295.096,-65.07,,
1295.111,-63.5,,
1295.126,-64.93,,
1295.141,-66.42,,
1295.156,-65.58,,
1295.171,-64.15,,
1295.186,-64.46,,
1295.201,-67.29,,
1295.216,-68.58,,
1295.231,-65.28,,
1295.246,-64.28,,
1295.261,-65.12,,
1295.276,-69.6,,
1295.291,-66.68,,
1295.306,-64.0,,
1295.321,-63.88,,
1295.336,-64.62,,
1295.351,-65.07,,
1295.366,-64.09,,
1295.381,-63.94,,
1295.396,-64.75,,
1295.411,-70.15,,
1295.426,-66.31,,
1295.441,-64.81,,
1295.456,-64.85,,
1295.471,-66.6,,
1295.486,-66.77,,
1295.501,-65.08,,
1295.516,-64.76,,
1295.531,-67.95,,
1295.546,-68.78,,
1295.561,-68.25,,
1295.576,-66.8,,
1295.591,-67.12,,
1295.606,-69.63,,
1295.621,-67.56,,
1295.636,-64.48,,
1295.651,-65.25,,
1295.666,-66.55,,
1295.681,-67.23,,
1295.696,-65.08,,
1295.711,-65.26,,
1295.726,-69.54,,
1295.741,-75.07,,
1295.756,-66.86,,
1295.771,-66.36,,
1295.786,-68.08,,
1295.801,-73.4,,
1295.816,-71.5,,
1295.831,-65.75,,
1295.846,-65.31,,
1295.861,-67.62,,
1295.876,-67.94,,
1295.891,-64.66,,
1295.906,-64.88,,
1295.921,-65.27,,
1295.936,-69.24,,
1295.951,-66.35,,
1295.966,-64.89,,
1295.981,-66.61,,
1295.996,-69.62,,
1296.011,-67.84,,
1296.026,-66.74,,
1296.041,-66.33,,
1296.056,-72.45,,
1296.071,-70.22,,
1296.086,-65.64,,
1296.101,-66.07,,
1296.116,-71.4,,
1296.131,-70.65,,
1296.146,-68.68,,
1296.161,-65.93,,
1296.176,-66.83,,
1296.191,-73.77,,
1296.206,-67.81,,
1296.221,-65.15,,
1296.236,-67.88,,
1296.251,-71.83,,
1296.266,-210.0,,
1296.281,-67.91,,
1296.296,-66.15,,
1296.311,-69.54,,
1296.326,-75.41,,
1296.341,-73.81,,
1296.356,-70.81,,
1296.371,-67.91,,
1296.386,-86.26,,
1296.401,-210.0,,
1296.416,-68.63,,
1296.431,-69.07,,
1296.446,-79.12,,
1296.461,-210.0,,
1296.476,-210.0,,
1296.491,-68.98,,
1296.506,-72.17,,
1296.521,-210.0,,
1296.536,-71.39,,
1296.551,-68.04,,
1296.566,-67.09,,
1296.581,-70.93,,
1296.596,-210.0,,
1296.611,-69.34,,
1296.626,-66.56,,
1296.641,-70.92,,
1296.656,-82.17,,
1296.671,-73.9,,
1296.686,-67.47,,
1296.701,-82.16,,
1296.716,-210.0,,
1296.731,-210.0,,
1296.746,-70.3,,
1296.761,-210.0,,
1296.776,-210.0,,
1296.791,-210.0,,
1296.806,-210.0,,
1296.821,-210.0,,
1296.836,-210.0,,
1296.851,-210.0,,
1296.866,-210.0,,
1296.881,-210.0,,
1296.896,-210.0,,
1296.911,-210.0,,
1296.926,-210.0,,
1296.941,-210.0,,
1296.956,-210.0,,
1296.971,-210.0,,
1296.986,-210.0,,
1297.001,-210.0,,
1297.016,-82.29,,
1297.031,-210.0,,
1297.046,-210.0,,
1297.061,-210.0,,
1297.076,-77.13,,
1297.091,-210.0,,
1297.106,-210.0,,
1297.121,-210.0,,
1297.136,-210.0,,
1297.151,-210.0,,
1297.166,-210.0,,
1297.181,-210.0,,
1297.196,-210.0,,
1297.211,-83.15,,
1297.226,-210.0,,
1297.241,-210.0,,
1297.256,-210.0,,
1297.271,-210.0,,
1297.286,-210.0,,
1297.301,-210.0,,
1297.316,-210.0,,
1297.331,-210.0,,
1297.346,-210.0,,
1297.361,-210.0,,
1297.376,-210.0,,
1297.391,-210.0,,
1297.406,-83.38,,
1297.421,-210.0,,
1297.436,-210.0,,
1297.451,-210.0,,
1297.466,-210.0,,
1297.481,-210.0,,
1297.496,-210.0,,
1297.511,-210.0,,
1297.526,-72.58,,
1297.541,-81.92,,
1297.556,-210.0,,
1297.571,-210.0,,
1297.586,-75.76,,
1297.601,-71.18,,
1297.616,-210.0,,
1297.631,-210.0,,
1297.646,-78.3,,
1297.661,-67.83,,
1297.676,-210.0,,
1297.691,-210.0,,
1297.706,-77.75,,
1297.721,-68.08,,
1297.736,-68.37,,
1297.751,-69.7,,
1297.766,-78.59,,
1297.781,-66.09,,
1297.796,-66.99,,
1297.811,-72.83,,
1297.826,-69.87,,
1297.841,-69.42,,
1297.856,-66.09,,
1297.871,-65.22,,
1297.886,-71.08,,
1297.901,-68.38,,
1297.916,-65.93,,
1297.931,-67.68,,
1297.946,-74.0,,
1297.961,-74.08,,
1297.976,-67.6,,
1297.991,-66.05,,
1298.006,-68.64,,
1298.021,-72.77,,
1298.036,-66.89,,
1298.051,-66.5,,
1298.066,-68.21,,
1298.081,-72.31,,
1298.096,-75.81,,
1298.111,-67.24,,
1298.126,-68.19,,
1298.141,-71.78,,
1298.156,-69.63,,
1298.171,-66.66,,
1298.186,-65.42,,
1298.201,-69.87,,
1298.216,-210.0,,
1298.231,-74.24,,
1298.246,-67.54,,
1298.261,-69.94,,
1298.276,-71.06,,
1298.291,-71.59,,
1298.306,-66.41,,
1298.321,-69.41,,
1298.336,-73.7,,
1298.351,-77.44,,
1298.366,-68.14,,
1298.381,-68.61,,
1298.396,-72.74,,
1298.411,-210.0,,
1298.426,-67.78,,
1298.441,-66.16,,
1298.456,-66.72,,
1298.471,-71.0,,
1298.486,-66.78,,
1298.501,-65.79,,
1298.516,-68.44,,
1298.531,-210.0,,
1298.546,-77.45,,
1298.561,-67.47,,
1298.576,-68.15,,
1298.591,-74.97,,
1298.606,-78.49,,
1298.621,-68.01,,
1298.636,-68.48,,
1298.651,-210.0,,
1298.666,-210.0,,
1298.681,-210.0,,
1298.696,-70.24,,
1298.711,-69.71,,
1298.726,-210.0,,
1298.741,-210.0,,
1298.756,-72.27,,
1298.771,-69.38,,
1298.786,-210.0,,
1298.801,-210.0,,
1298.816,-210.0,,
1298.831,-72.31,,
1298.846,-76.01,,
1298.861,-210.0,,
1298.876,-210.0,,
1298.891,-73.88,,
1298.906,-210.0,,
1298.921,-210.0,,
1298.936,-210.0,,
1298.951,-210.0,,
1298.966,-210.0,,
1298.981,-210.0,,
1298.996,-210.0,,
1299.011,-210.0,,
1299.026,-210.0,,
1299.041,-210.0,,
1299.056,-210.0,,
1299.071,-210.0,,
1299.086,-210.0,,
1299.101,-210.0,,
1299.116,-210.0,,
1299.131,-210.0,,
1299.146,-210.0,,
1299.161,-75.77,,
1299.176,-210.0,,
1299.191,-210.0,,
1299.206,-210.0,,
1299.221,-75.76,,
1299.236,-210.0,,
1299.251,-210.0,,
1299.266,-210.0,,
1299.281,-210.0,,
1299.296,-81.22,,
1299.311,-210.0,,
1299.326,-210.0,,
1299.341,-210.0,,
1299.356,-77.3,,
1299.371,-75.51,,
1299.386,-210.0,,
1299.401,-210.0,,
1299.416,-69.91,,
1299.431,-210.0,,
1299.446,-210.0,,
1299.461,-210.0,,
1299.476,-210.0,,
1299.491,-72.57,,
1299.506,-210.0,,
1299.521,-210.0,,
1299.536,-73.03,,
1299.551,-78.18,,
1299.566,-210.0,,
1299.581,-210.0,,
1299.596,-78.84,,
1299.611,-74.64,,
1299.626,-75.06,,
1299.641,-210.0,,
1299.656,-80.54,,
1299.671,-70.16,,
1299.686,-70.72,,
1299.701,-210.0,,
1299.716,-76.54,,
1299.731,-68.63,,
1299.746,-67.75,,
1299.761,-210.0,,
1299.776,-210.0,,
1299.791,-73.97,,
1299.806,-70.68,,
1299.821,-87.57,,
1299.836,-86.88,,
1299.851,-74.97,,
1299.866,-79.06,,
1299.881,-210.0,,
1299.896,-210.0,,
1299.911,-74.45,,
1299.926,-70.59,,
1299.941,-75.82,,
1299.956,-210.0,,
1299.971,-75.76,,
1299.986,-67.54,,
1300.001,-69.93,,
1300.016,-79.67,,
1300.031,-75.23,,
1300.046,-75.5,,
1300.061,-73.26,,
1300.076,-210.0,,
1300.091,-210.0,,
1300.106,-83.94,,
1300.121,-73.79,,
1300.136,-70.54,,
1300.151,-75.99,,
1300.166,-75.07,,
1300.181,-71.53,,
1300.196,-78.05,,
1300.211,-210.0,,
1300.226,-210.0,,
1300.241,-210.0,,
1300.256,-210.0,,
1300.271,-210.0,,
1300.286,-210.0,,
1300.301,-210.0,,
1300.316,-210.0,,
1300.331,-210.0,,
1300.346,-210.0,,
1300.361,-77.79,,
1300.376,-210.0,,
1300.391,-210.0,,
1300.406,-210.0,,
1300.421,-210.0,,
1300.436,-210.0,,
1300.451,-210.0,,
1300.466,-210.0,,
1300.481,-210.0,,
1300.496,-210.0,,
1300.511,-210.0,,
1300.526,-210.0,,
1300.541,-210.0,,
1300.556,-210.0,,
1300.571,-210.0,,
1300.586,-210.0,,
1300.601,-210.0,,
1300.616,-210.0,,
1300.631,-210.0,,
1300.646,-210.0,,
1300.661,-210.0,,
1300.676,-210.0,,
1300.691,-210.0,,
1300.706,-210.0,,
1300.721,-210.0,,
1300.736,-210.0,,
1300.751,-210.0,,
1300.766,-210.0,,
1300.781,-210.0,,
1300.796,-210.0,,
1300.811,-210.0,,
1300.826,-210.0,,
1300.841,-210.0,,
1300.856,-210.0,,
1300.871,-210.0,,
1300.886,-73.64,,
1300.901,-70.58,,
1300.916,-210.0,,
1300.931,-210.0,,
1300.946,-68.28,,
1300.961,-69.42,,
1300.976,-210.0,,
1300.991,-71.24,,
1301.006,-67.82,,
1301.021,-65.29,,
1301.036,-67.98,,
1301.051,-71.86,,
1301.066,-67.86,,
1301.081,-66.24,,
1301.096,-69.53,,
1301.111,-79.65,,
1301.126,-71.2,,
1301.141,-69.69,,
1301.156,-67.98,,
1301.171,-210.0,,
1301.186,-210.0,,
1301.201,-67.67,,
1301.216,-69.7,,
1301.231,-71.5,,
1301.246,-71.9,,
1301.261,-66.57,,
1301.276,-64.08,,
1301.292,-65.92,,
1301.307,-67.79,,
1301.321,-64.8,,
1301.336,-64.08,,
1301.351,-64.47,,
1301.366,-67.79,,
1301.381,-65.73,,
1301.396,-64.33,,
1301.411,-63.26,,
1301.427,-65.67,,
1301.442,-65.96,,
1301.457,-65.68,,
1301.471,-63.64,,
1301.486,-64.04,,
1301.501,-65.92,,
1301.516,-63.61,,
1301.531,-63.38,,
1301.547,-64.23,,
1301.562,-66.21,,
1301.577,-65.17,,
1301.592,-64.04,,
1301.606,-63.57,,
1301.621,-64.89,,
1301.636,-65.57,,
1301.651,-64.68,,
1301.667,-63.52,,
1301.682,-64.52,,
1301.697,-66.57,,
1301.712,-65.76,,
1301.727,-64.41,,
1301.742,-64.35,,
1301.756,-64.99,,
1301.771,-67.8,,
1301.786,-65.42,,
1301.802,-65.06,,
1301.817,-67.24,,
1301.832,-67.62,,
1301.847,-66.56,,
1301.862,-64.77,,
1301.877,-65.38,,
1301.891,-71.11,,
1301.906,-69.56,,
1301.922,-65.39,,
1301.937,-67.05,,
1301.952,-75.45,,
1301.967,-68.3,,
1301.982,-65.64,,
1301.997,-66.61,,
1302.012,-73.1,,
1302.027,-210.0,,
1302.042,-68.62,,
1302.057,-67.31,,
1302.072,-210.0,,
1302.087,-210.0,,
1302.102,-71.95,,
1302.117,-67.36,,
1302.132,-68.42,,
1302.147,-84.55,,
1302.162,-78.1,,
1302.177,-66.87,,
1302.192,-69.86,,
1302.207,-78.58,,
1302.222,-67.66,,
1302.237,-67.55,,
1302.252,-65.87,,
1302.267,-69.99,,
1302.282,-89.28,,
1302.297,-69.28,,
1302.312,-67.18,,
1302.327,-81.53,,
1302.342,-80.2,,
1302.357,-89.22,,
1302.372,-68.09,,
1302.387,-67.3,,
1302.402,-210.0,,
1302.417,-210.0,,
1302.432,-66.57,,
1302.447,-73.81,,
1302.462,-71.47,,
1302.477,-71.34,,
1302.492,-71.64,,
1302.507,-66.97,,
1302.522,-67.08,,
1302.537,-73.99,,
1302.552,-67.39,,
1302.567,-64.53,,
1302.582,-66.12,,
1302.597,-67.76,,
1302.612,-67.33,,
1302.627,-67.6,,
1302.642,-65.02,,
1302.657,-67.24,,
1302.672,-68.5,,
1302.687,-65.55,,
1302.702,-65.93,,
1302.717,-65.52,,
1302.732,-64.91,,
1302.747,-65.88,,
1302.762,-64.73,,
1302.777,-64.2,,
1302.792,-66.16,,
1302.807,-64.69,,
1302.822,-63.16,,
1302.837,-64.42,,
1302.852,-63.89,,
1302.867,-63.55,,
1302.882,-64.09,,
1302.897,-62.78,,
1302.912,-63.5,,
1302.927,-64.48,,
1302.942,-63.39,,
1302.957,-63.03,,
1302.972,-64.49,,
1302.987,-64.1,,
1303.002,-64.49,,
1303.017,-64.45,,
1303.032,-64.72,,
1303.047,-66.24,,
1303.062,-65.18,,
1303.077,-63.47,,
1303.092,-64.1,,
1303.107,-64.46,,
1303.122,-64.31,,
1303.137,-64.35,,
1303.152,-63.22,,
1303.167,-64.55,,
1303.182,-64.93,,
1303.197,-63.9,,
1303.212,-64.13,,
1303.227,-65.86,,
1303.242,-65.18,,
1303.257,-65.02,,
1303.272,-65.48,,
1303.287,-64.59,,
1303.302,-65.47,,
1303.317,-65.67,,
1303.332,-65.14,,
1303.347,-66.58,,
1303.362,-66.57,,
1303.377,-66.49,,
1303.392,-69.98,,
1303.407,-68.45,,
1303.422,-70.04,,
1303.437,-210.0,,
1303.452,-68.9,,
1303.467,-68.18,,
1303.482,-72.78,,
1303.497,-69.72,,
1303.512,-72.32,,
1303.527,-210.0,,
1303.542,-71.71,,
1303.557,-210.0,,
1303.572,-210.0,,
1303.587,-72.9,,
1303.602,-77.11,,
1303.617,-210.0,,
1303.632,-74.74,,
1303.647,-210.0,,
1303.662,-210.0,,
1303.677,-75.16,,
1303.692,-93.74,,
1303.707,-71.61,,
1303.722,-69.69,,
1303.737,-80.06,,
1303.752,-70.54,,
1303.767,-76.93,,
1303.782,-210.0,,
1303.797,-70.46,,
1303.812,-70.95,,
1303.827,-79.98,,
1303.842,-210.0,,
1303.857,-210.0,,
1303.872,-210.0,,
1303.887,-210.0,,
1303.902,-210.0,,
1303.917,-210.0,,
1303.932,-78.42,,
1303.947,-210.0,,
1303.962,-210.0,,
1303.977,-210.0,,
1303.992,-210.0,,
1304.007,-210.0,,
1304.022,-70.06,,
1304.037,-71.99,,
1304.052,-70.03,,
1304.067,-71.27,,
1304.082,-71.89,,
1304.097,-74.17,,
1304.112,-70.3,,
1304.127,-72.31,,
1304.142,-70.09,,
1304.157,-70.29,,
1304.172,-68.85,,
1304.187,-68.25,,
1304.202,-67.86,,
1304.217,-67.86,,
1304.232,-68.64,,
1304.247,-68.12,,
1304.262,-70.27,,
1304.277,-67.45,,
1304.292,-69.7,,
1304.307,-72.24,,
1304.322,-73.35,,
1304.337,-69.96,,
1304.352,-67.36,,
1304.367,-70.8,,
1304.382,-71.46,,
1304.397,-67.21,,
1304.412,-67.85,,
1304.427,-66.28,,
1304.442,-64.78,,
1304.457,-65.31,,
1304.472,-64.28,,
1304.487,-64.96,,
1304.502,-67.2,,
1304.517,-65.48,,
1304.532,-65.39,,
1304.547,-67.61,,
1304.562,-65.35,,
1304.577,-65.43,,
1304.592,-69.28,,
1304.607,-67.75,,
1304.622,-68.9,,
1304.637,-71.29,,
1304.652,-67.72,,
1304.667,-67.54,,
1304.682,-68.52,,
1304.697,-67.73,,
1304.712,-69.16,,
1304.727,-77.48,,
1304.742,-68.7,,
1304.757,-76.02,,
1304.772,-77.1,,
1304.787,-68.48,,
1304.802,-72.85,,
1304.817,-80.28,,
1304.832,-70.41,,
1304.847,-68.86,,
1304.862,-67.9,,
1304.877,-66.26,,
1304.892,-66.78,,
1304.907,-70.43,,
1304.922,-66.49,,
1304.937,-77.03,,
1304.952,-73.74,,
1304.967,-67.31,,
1304.982,-66.61,,
1304.997,-69.56,,
1305.012,-67.82,,
1305.027,-68.87,,
1305.042,-70.38,,
1305.057,-66.8,,
1305.072,-67.92,,
1305.087,-68.76,,
1305.102,-66.73,,
1305.117,-69.09,,
1305.132,-68.96,,
1305.147,-69.14,,
1305.162,-84.22,,
1305.177,-77.25,,
1305.192,-71.77,,
1305.207,-77.23,,
1305.222,-74.21,,
1305.237,-68.24,,
1305.252,-74.36,,
1305.267,-71.57,,
1305.282,-69.92,,
1305.297,-68.71,,
1305.312,-67.6,,
1305.327,-66.59,,
1305.342,-67.5,,
1305.357,-69.03,,
1305.372,-66.98,,
1305.387,-69.49,,
1305.402,-70.33,,
1305.417,-68.16,,
1305.432,-68.19,,
1305.447,-69.05,,
1305.462,-67.74,,
1305.477,-74.07,,
1305.492,-210.0,,
1305.507,-66.97,,
1305.522,-72.44,,
1305.537,-69.88,,
1305.552,-66.67,,
1305.567,-68.58,,
1305.582,-68.89,,
1305.597,-66.42,,
1305.612,-67.0,,
1305.627,-66.24,,
1305.642,-66.96,,
1305.657,-67.67,,
1305.672,-65.92,,
1305.687,-66.19,,
1305.702,-67.69,,
1305.717,-68.01,,
1305.732,-66.29,,
1305.747,-68.63,,
1305.762,-66.46,,
1305.777,-67.88,,
1305.792,-67.73,,
1305.807,-65.24,,
1305.822,-67.46,,
1305.837,-68.7,,
1305.852,-68.05,,
1305.867,-67.41,,
1305.882,-69.12,,
1305.897,-69.63,,
1305.912,-66.1,,
1305.927,-65.96,,
1305.942,-64.87,,
1305.957,-65.36,,
1305.972,-66.13,,
1305.987,-65.77,,
1306.002,-66.18,,
1306.017,-66.58,,
1306.032,-66.39,,
1306.047,-64.53,,
1306.062,-64.92,,
1306.077,-66.45,,
1306.092,-66.66,,
1306.107,-65.44,,
1306.122,-64.56,,
1306.137,-66.06,,
1306.152,-65.79,,
1306.167,-64.61,,
1306.182,-63.23,,
1306.197,-63.85,,
1306.212,-65.57,,
1306.227,-65.02,,
1306.242,-64.5,,
1306.257,-64.33,,
1306.272,-65.19,,
1306.287,-65.06,,
1306.302,-64.54,,
1306.317,-63.47,,
1306.332,-65.35,,
1306.347,-65.44,,
1306.362,-64.16,,
1306.377,-63.63,,
1306.392,-64.02,,
1306.407,-64.53,,
1306.422,-64.24,,
1306.437,-63.11,,
1306.452,-63.64,,
1306.467,-66.43,,
1306.482,-65.27,,
1306.497,-63.0,,
1306.512,-64.44,,
1306.527,-64.49,,
1306.542,-64.42,,
1306.557,-64.73,,
1306.572,-63.03,,
1306.587,-64.4,,
1306.602,-65.29,,
1306.617,-63.97,,
1306.632,-63.69,,
1306.647,-63.72,,
1306.662,-63.63,,
1306.677,-63.95,,
1306.692,-64.34,,
1306.707,-64.45,,
1306.722,-66.84,,
1306.737,-65.71,,
1306.752,-64.06,,
1306.767,-65.88,,
1306.782,-65.62,,
1306.797,-65.43,,
1306.812,-67.32,,
1306.827,-67.06,,
1306.842,-65.63,,
1306.857,-65.7,,
1306.872,-64.56,,
1306.887,-64.11,,
1306.902,-65.45,,
1306.917,-65.05,,
1306.932,-65.07,,
1306.947,-66.26,,
1306.962,-65.67,,
1306.977,-64.89,,
1306.992,-65.72,,
1307.007,-65.16,,
1307.022,-66.48,,
1307.037,-69.05,,
1307.052,-69.36,,
1307.067,-74.4,,
1307.082,-71.18,,
1307.097,-67.6,,
1307.112,-70.35,,
1307.127,-78.92,,
1307.142,-70.46,,
1307.157,-68.47,,
1307.172,-68.63,,
1307.187,-68.17,,
1307.202,-71.44,,
1307.217,-66.87,,
1307.232,-65.91,,
1307.247,-67.47,,
1307.262,-67.67,,
1307.277,-65.31,,
1307.292,-65.73,,
1307.307,-68.42,,
1307.322,-71.66,,
1307.337,-68.2,,
1307.352,-66.51,,
1307.367,-67.02,,
1307.382,-79.38,,
1307.397,-67.17,,
1307.412,-65.57,,
1307.427,-68.47,,
1307.442,-74.63,,
1307.457,-71.27,,
1307.472,-66.96,,
1307.487,-66.19,,
1307.502,-68.98,,
1307.517,-68.81,,
1307.532,-65.23,,
1307.547,-66.11,,
1307.562,-68.48,,
1307.577,-72.75,,
1307.592,-66.78,,
1307.607,-66.96,,
1307.622,-77.83,,
1307.637,-71.98,,
1307.652,-68.46,,
1307.667,-67.89,,
1307.682,-210.0,,
1307.697,-75.11,,
1307.712,-68.14,,
1307.727,-65.55,,
1307.742,-68.0,,
1307.757,-70.19,,
1307.772,-65.62,,
1307.787,-65.37,,
1307.802,-69.96,,
1307.817,-68.11,,
1307.832,-65.28,,
1307.847,-65.08,,
1307.862,-66.82,,
1307.877,-71.24,,
1307.892,-67.56,,
1307.907,-65.31,,
1307.922,-68.23,,
1307.937,-78.89,,
1307.952,-67.56,,
1307.967,-67.42,,
1307.982,-210.0,,
1307.997,-210.0,,
1308.012,-210.0,,
1308.027,-70.57,,
1308.042,-68.42,,
1308.057,-210.0,,
1308.072,-210.0,,
1308.087,-68.23,,
1308.102,-72.62,,
1308.117,-210.0,,
1308.132,-69.57,,
1308.147,-67.14,,
1308.162,-71.51,,
1308.177,-210.0,,
1308.192,-210.0,,
1308.207,-210.0,,
1308.222,-73.04,,
1308.237,-210.0,,
1308.252,-210.0,,
1308.267,-74.03,,
1308.282,-210.0,,
1308.297,-210.0,,
1308.312,-210.0,,
1308.327,-210.0,,
1308.342,-210.0,,
1308.357,-210.0,,
1308.372,-210.0,,
1308.387,-75.54,,
1308.402,-73.86,,
1308.417,-210.0,,
1308.432,-210.0,,
1308.447,-73.75,,
1308.462,-72.41,,
1308.477,-76.75,,
1308.492,-210.0,,
1308.507,-210.0,,
1308.522,-71.92,,
1308.537,-72.95,,
1308.552,-210.0,,
1308.567,-210.0,,
1308.582,-75.33,,
1308.597,-73.92,,
1308.612,-210.0,,
1308.627,-210.0,,
1308.642,-77.73,,
1308.657,-71.02,,
1308.672,-210.0,,
1308.687,-210.0,,
1308.702,-210.0,,
1308.717,-78.09,,
1308.732,-210.0,,
1308.747,-210.0,,
1308.762,-75.16,,
1308.777,-75.9,,
1308.792,-210.0,,
1308.807,-210.0,,
1308.822,-75.93,,
1308.837,-73.28,,
1308.852,-76.22,,
1308.867,-210.0,,
1308.882,-73.48,,
1308.897,-72.83,,
1308.912,-210.0,,
1308.927,-210.0,,
1308.942,-76.78,,
1308.957,-76.3,,
1308.972,-75.61,,
1308.987,-66.7,,
1309.002,-65.38,,
1309.017,-65.54,,
1309.032,-65.82,,
1309.047,-66.77,,
1309.062,-64.87,,
1309.077,-65.05,,
1309.092,-65.12,,
1309.107,-64.66,,
1309.122,-65.73,,
1309.137,-68.48,,
1309.152,-71.0,,
1309.167,-66.55,,
1309.182,-66.06,,
1309.198,-66.0,,
1309.212,-65.34,,
1309.227,-65.96,,
1309.242,-68.88,,
1309.257,-67.24,,
1309.272,-68.04,,
1309.287,-66.64,,
1309.302,-64.48,,
1309.318,-65.8,,
1309.333,-67.2,,
1309.347,-65.71,,
1309.362,-67.11,,
1309.377,-66.92,,
1309.392,-66.11,,
1309.407,-65.76,,
1309.422,-67.5,,
1309.438,-66.25,,
1309.453,-69.87,,
1309.468,-68.35,,
1309.483,-67.05,,
1309.497,-66.08,,
1309.512,-66.73,,
1309.527,-67.25,,
1309.542,-71.0,,
1309.557,-210.0,,
1309.573,-67.67,,
1309.588,-67.0,,
1309.603,-68.11,,
1309.618,-68.55,,
1309.632,-67.01,,
1309.647,-65.87,,
1309.662,-65.73,,
1309.677,-66.08,,
1309.693,-66.25,,
1309.708,-63.38,,
1309.723,-64.11,,
1309.738,-65.85,,
1309.753,-64.85,,
1309.768,-63.89,,
1309.782,-64.15,,
1309.797,-64.37,,
1309.813,-64.25,,
1309.828,-63.95,,
1309.843,-63.33,,
1309.858,-65.97,,
1309.873,-66.24,,
1309.888,-64.41,,
1309.903,-64.72,,
1309.917,-67.97,,
1309.932,-66.45,,
1309.948,-64.76,,
1309.963,-64.34,,
1309.978,-65.0,,
1309.993,-68.53,,
1310.008,-67.67,,
1310.023,-64.69,,
1310.038,-65.95,,
1310.053,-68.87,,
1310.068,-64.78,,
1310.083,-64.28,,
1310.098,-66.22,,
1310.113,-67.8,,
1310.128,-67.33,,
1310.143,-64.6,,
1310.158,-64.0,,
1310.173,-66.37,,
1310.188,-67.23,,
1310.203,-64.65,,
1310.218,-64.99,,
1310.233,-69.23,,
1310.248,-66.52,,
1310.263,-64.69,,
1310.278,-65.25,,
1310.293,-67.78,,
1310.308,-77.02,,
1310.323,-67.02,,
1310.338,-65.29,,
1310.353,-67.27,,
1310.368,-69.92,,
1310.383,-65.69,,
1310.398,-65.73,,
1310.413,-71.08,,
1310.428,-68.46,,
1310.443,-66.05,,
1310.458,-64.84,,
1310.473,-67.29,,
1310.488,-77.97,,
1310.503,-68.62,,
1310.518,-66.84,,
1310.533,-69.71,,
1310.548,-88.79,,
1310.563,-66.53,,
1310.578,-66.28,,
1310.593,-70.01,,
1310.608,-74.17,,
1310.623,-67.78,,
1310.638,-66.56,,
1310.653,-72.31,,
1310.668,-210.0,,
1310.683,-210.0,,
1310.698,-71.35,,
1310.713,-210.0,,
1310.728,-210.0,,
1310.743,-73.1,,
1310.758,-70.74,,
1310.773,-210.0,,
1310.788,-210.0,,
1310.803,-210.0,,
1310.818,-71.33,,
1310.833,-210.0,,
1310.848,-210.0,,
1310.863,-210.0,,
1310.878,-87.7,,
1310.893,-80.85,,
1310.908,-210.0,,
1310.923,-210.0,,
1310.938,-70.65,,
1310.953,-72.23,,
1310.968,-210.0,,
1310.983,-210.0,,
1310.998,-72.75,,
1311.013,-72.82,,
1311.028,-210.0,,
1311.043,-210.0,,
1311.058,-73.34,,
1311.073,-84.4,,
1311.088,-210.0,,
1311.103,-210.0,,
1311.118,-210.0,,
1311.133,-75.05,,
1311.148,-210.0,,
1311.163,-210.0,,
1311.178,-210.0,,
1311.193,-71.16,,
1311.208,-73.09,,
1311.223,-210.0,,
1311.238,-73.1,,
1311.253,-69.23,,
1311.268,-75.33,,
1311.283,-210.0,,
1311.298,-74.33,,
1311.313,-66.8,,
1311.328,-71.21,,
1311.343,-210.0,,
1311.358,-74.05,,
1311.373,-68.62,,
1311.388,-68.17,,
1311.403,-74.86,,
1311.418,-73.82,,
1311.433,-68.84,,
1311.448,-72.06,,
1311.463,-210.0,,
1311.478,-210.0,,
1311.493,-66.97,,
1311.508,-67.7,,
1311.523,-210.0,,
1311.538,-71.12,,
1311.553,-66.92,,
1311.568,-66.32,,
1311.583,-67.74,,
1311.598,-69.27,,
1311.613,-66.71,,
1311.628,-68.22,,
1311.643,-76.63,,
1311.658,-69.57,,
1311.673,-66.55,,
1311.688,-65.0,,
1311.703,-68.13,,
1311.718,-66.76,,
1311.733,-66.2,,
1311.748,-66.24,,
1311.763,-69.4,,
1311.778,-69.82,,
1311.793,-65.6,,
1311.808,-65.43,,
1311.823,-68.89,,
1311.838,-67.26,,
1311.853,-65.22,,
1311.868,-63.94,,
1311.883,-65.65,,
1311.898,-66.28,,
1311.913,-64.9,,
1311.928,-63.77,,
1311.943,-64.7,,
1311.958,-66.45,,
1311.973,-63.42,,
1311.988,-63.0,,
1312.003,-64.55,,
1312.018,-64.7,,
1312.033,-64.84,,
1312.048,-63.97,,
1312.063,-65.33,,
1312.078,-65.85,,
1312.093,-65.36,,
1312.108,-63.51,,
1312.123,-63.57,,
1312.138,-65.59,,
1312.153,-63.27,,
1312.168,-62.95,,
1312.183,-64.25,,
1312.198,-65.19,,
1312.213,-64.83,,
1312.228,-63.56,,
1312.243,-64.84,,
1312.258,-67.13,,
1312.273,-66.58,,
1312.288,-64.02,,
1312.303,-64.91,,
1312.318,-67.58,,
1312.333,-65.09,,
1312.348,-63.43,,
1312.363,-65.07,,
1312.378,-65.38,,
1312.393,-65.96,,
1312.408,-65.82,,
1312.423,-65.82,,
1312.438,-69.63,,
1312.453,-71.73,,
1312.468,-65.46,,
1312.483,-64.25,,
1312.498,-67.31,,
1312.513,-66.3,,
1312.528,-63.82,,
1312.543,-65.92,,
1312.558,-65.89,,
1312.573,-65.45,,
1312.588,-66.7,,
1312.603,-66.63,,
1312.618,-65.78,,
1312.633,-65.55,,
1312.648,-63.71,,
1312.663,-63.72,,
1312.678,-66.15,,
1312.693,-66.67,,
1312.708,-63.89,,
1312.723,-64.16,,
1312.738,-65.11,,
1312.753,-65.95,,
1312.768,-64.61,,
1312.783,-64.3,,
1312.798,-65.84,,
1312.813,-65.78,,
1312.828,-64.85,,
1312.843,-65.92,,
1312.858,-69.44,,
1312.873,-80.39,,
1312.888,-66.25,,
1312.903,-67.34,,
1312.918,-69.31,,
1312.933,-71.75,,
1312.948,-68.83,,
1312.963,-67.62,,
1312.978,-82.17,,
1312.993,-210.0,,
1313.008,-70.03,,
1313.023,-70.44,,
1313.038,-210.0,,
1313.053,-82.17,,
1313.068,-68.08,,
1313.083,-65.9,,
1313.098,-66.39,,
1313.113,-70.39,,
1313.128,-69.84,,
1313.143,-65.93,,
1313.158,-69.14,,
1313.173,-71.88,,
1313.188,-66.67,,
1313.203,-66.23,,
1313.218,-71.53,,
1313.233,-70.22,,
1313.248,-67.34,,
1313.263,-66.46,,
1313.278,-66.89,,
1313.293,-72.8,,
1313.308,-69.21,,
1313.323,-66.84,,
1313.338,-70.95,,
1313.353,-210.0,,
1313.368,-69.4,,
1313.383,-69.84,,
1313.398,-210.0,,
1313.413,-210.0,,
1313.428,-68.58,,
1313.443,-66.33,,
1313.458,-67.32,,
1313.473,-67.22,,
1313.488,-68.73,,
1313.503,-65.67,,
1313.518,-68.19,,
1313.533,-88.18,,
1313.548,-67.16,,
1313.563,-66.45,,
1313.578,-210.0,,
1313.593,-210.0,,
1313.608,-67.55,,
1313.623,-68.77,,
1313.638,-210.0,,
1313.653,-210.0,,
1313.668,-210.0,,
1313.683,-68.07,,
1313.698,-68.29,,
1313.713,-210.0,,
1313.728,-210.0,,
1313.743,-69.66,,
1313.758,-70.38,,
1313.773,-210.0,,
1313.788,-73.82,,
1313.803,-67.09,,
1313.818,-69.32,,
1313.833,-210.0,,
1313.848,-69.52,,
1313.863,-66.0,,
1313.878,-64.1,,
1313.893,-67.53,,
1313.908,-70.41,,
1313.923,-65.63,,
1313.938,-65.77,,
1313.953,-81.19,,
1313.968,-69.92,,
1313.983,-65.73,,
1313.998,-66.57,,
1314.013,-69.44,,
1314.028,-67.16,,
1314.043,-64.95,,
1314.058,-64.78,,
1314.073,-66.47,,
1314.088,-72.57,,
1314.103,-69.05,,
1314.118,-66.42,,
1314.133,-70.08,,
1314.148,-72.36,,
1314.163,-67.14,,
1314.178,-69.9,,
1314.193,-210.0,,
1314.208,-210.0,,
1314.223,-69.51,,
1314.238,-69.15,,
1314.253,-81.04,,
1314.268,-210.0,,
1314.283,-72.18,,
1314.298,-66.42,,
1314.313,-68.17,,
1314.328,-70.37,,
1314.343,-65.25,,
1314.358,-64.6,,
1314.373,-69.34,,
1314.388,-72.39,,
1314.403,-67.51,,
1314.418,-66.03,,
1314.433,-68.99,,
1314.448,-76.6,,
1314.463,-67.23,,
1314.478,-68.04,,
1314.493,-73.85,,
1314.508,-210.0,,
1314.523,-76.06,,
1314.538,-68.42,,
1314.553,-210.0,,
1314.568,-210.0,,
1314.583,-73.64,,
1314.598,-67.6,,
1314.613,-73.79,,
1314.628,-210.0,,
1314.643,-68.65,,
1314.658,-65.17,,
1314.673,-67.62,,
1314.688,-85.45,,
1314.703,-210.0,,
1314.718,-68.6,,
1314.733,-70.12,,
1314.748,-210.0,,
1314.763,-76.3,,
1314.778,-68.89,,
1314.793,-68.88,,
1314.808,-210.0,,
1314.823,-210.0,,
1314.838,-71.23,,
1314.853,-77.06,,
1314.868,-210.0,,
1314.883,-210.0,,
1314.898,-210.0,,
1314.913,-210.0,,
1314.928,-210.0,,
1314.943,-210.0,,
1314.958,-69.73,,
1314.973,-210.0,,
1314.988,-210.0,,
1315.003,-73.86,,
1315.018,-67.67,,
1315.033,-70.67,,
1315.048,-210.0,,
1315.063,-210.0,,
1315.078,-74.0,,
1315.093,-71.8,,
1315.108,-210.0,,
1315.123,-210.0,,
1315.138,-72.99,,
1315.153,-210.0,,
1315.168,-210.0,,
1315.183,-210.0,,
1315.198,-68.27,,
1315.213,-78.67,,
1315.228,-210.0,,
1315.243,-210.0,,
1315.258,-77.12,,
1315.273,-70.75,,
1315.288,-210.0,,
1315.303,-210.0,,
1315.318,-73.94,,
1315.333,-74.75,,
1315.348,-210.0,,
1315.363,-210.0,,
1315.378,-71.74,,
1315.393,-70.97,,
1315.408,-73.5,,
1315.423,-74.2,,
1315.438,-74.89,,
1315.453,-67.38,,
1315.468,-75.34,,
1315.483,-210.0,,
1315.498,-68.22,,
1315.513,-66.38,,
1315.528,-71.19,,
1315.543,-73.26,,
1315.558,-66.43,,
1315.573,-66.68,,
1315.588,-67.13,,
1315.603,-67.23,,
1315.618,-66.61,,
1315.633,-67.59,,
1315.648,-66.57,,
1315.663,-70.93,,
1315.678,-68.5,,
1315.693,-66.44,,
1315.708,-68.56,,
1315.723,-69.42,,
1315.738,-66.89,,
1315.753,-66.42,,
1315.768,-71.04,,
1315.783,-67.78,,
1315.798,-68.94,,
1315.813,-69.32,,
1315.828,-66.45,,
1315.843,-66.7,,
1315.858,-66.35,,
1315.873,-64.53,,
1315.888,-66.51,,
1315.903,-67.62,,
1315.918,-65.52,,
1315.933,-64.27,,
1315.948,-66.51,,
1315.963,-66.7,,
1315.978,-64.81,,
1315.993,-65.91,,
1316.008,-67.19,,
1316.023,-67.2,,
1316.038,-68.43,,
1316.053,-69.34,,
1316.068,-67.58,,
1316.083,-67.71,,
1316.098,-67.04,,
1316.113,-66.03,,
1316.128,-67.82,,
1316.143,-68.17,,
1316.158,-66.88,,
1316.173,-66.03,,
1316.188,-67.61,,
1316.203,-66.2,,
1316.218,-65.63,,
1316.233,-66.18,,
1316.248,-64.86,,
1316.263,-64.52,,
1316.278,-65.95,,
1316.293,-64.92,,
1316.308,-67.56,,
1316.323,-67.35,,
1316.338,-66.5,,
1316.353,-65.49,,
1316.368,-67.23,,
1316.383,-68.54,,
1316.398,-67.79,,
1316.413,-67.79,,
1316.428,-68.24,,
1316.443,-67.36,,
1316.458,-69.81,,
1316.473,-69.84,,
1316.488,-66.75,,
1316.503,-67.29,,
1316.518,-74.83,,
1316.533,-69.31,,
1316.548,-69.18,,
1316.563,-70.45,,
1316.578,-69.47,,
1316.593,-69.15,,
1316.608,-69.67,,
1316.623,-72.05,,
1316.638,-67.71,,
1316.653,-72.63,,
1316.668,-68.61,,
1316.683,-69.3,,
1316.698,-75.31,,
1316.713,-72.66,,
1316.728,-68.74,,
1316.743,-69.53,,
1316.758,-75.17,,
1316.773,-67.89,,
1316.788,-66.74,,
1316.803,-67.03,,
1316.818,-65.15,,
1316.833,-66.49,,
1316.848,-66.67,,
1316.863,-66.57,,
1316.878,-69.43,,
1316.893,-67.54,,
1316.908,-65.65,,
1316.923,-66.96,,
1316.938,-70.06,,
1316.953,-67.75,,
1316.968,-66.91,,
1316.983,-72.25,,
1316.998,-76.9,,
1317.013,-68.0,,
1317.028,-70.78,,
1317.043,-210.0,,
1317.058,-70.17,,
1317.073,-68.26,,
1317.088,-69.04,,
1317.103,-69.76,,
1317.118,-74.46,,
1317.133,-68.31,,
1317.148,-67.25,,
1317.163,-68.32,,
1317.178,-73.88,,
1317.193,-66.68,,
1317.208,-69.02,,
1317.224,-75.52,,
1317.238,-71.01,,
1317.253,-68.17,,
1317.268,-72.44,,
1317.283,-210.0,,
1317.298,-210.0,,
1317.313,-67.42,,
1317.328,-72.58,,
1317.344,-210.0,,
1317.359,-210.0,,
1317.373,-210.0,,
1317.388,-210.0,,
1317.403,-210.0,,
1317.418,-210.0,,
1317.433,-89.95,,
1317.448,-210.0,,
1317.464,-210.0,,
1317.479,-210.0,,
1317.494,-78.07,,
1317.509,-210.0,,
1317.523,-210.0,,
1317.538,-79.4,,
1317.553,-69.95,,
1317.568,-210.0,,
1317.583,-210.0,,
1317.599,-72.63,,
1317.614,-71.72,,
1317.629,-72.8,,
1317.644,-210.0,,
1317.658,-73.37,,
1317.673,-71.32,,
1317.688,-68.94,,
1317.703,-75.07,,
1317.719,-70.16,,
1317.734,-69.14,,
1317.749,-74.25,,
1317.764,-210.0,,
1317.779,-70.12,,
1317.794,-72.41,,
1317.808,-210.0,,
1317.823,-210.0,,
1317.839,-210.0,,
1317.854,-75.9,,
1317.869,-210.0,,
1317.884,-210.0,,
1317.899,-210.0,,
1317.914,-78.9,,
1317.929,-210.0,,
1317.944,-210.0,,
1317.958,-89.5,,
1317.974,-210.0,,
1317.989,-210.0,,
1318.004,-76.06,,
1318.019,-73.65,,
1318.034,-78.52,,
1318.049,-67.69,,
1318.064,-69.81,,
1318.079,-73.63,,
1318.094,-70.46,,
1318.109,-80.73,,
1318.124,-210.0,,
1318.139,-72.1,,
1318.154,-73.87,,
1318.169,-210.0,,
1318.184,-80.28,,
1318.199,-76.6,,
1318.214,-210.0,,
1318.229,-210.0,,
1318.244,-210.0,,
1318.259,-210.0,,
1318.274,-210.0,,
1318.289,-70.92,,
1318.304,-210.0,,
1318.319,-210.0,,
1318.334,-71.7,,
1318.349,-75.41,,
1318.364,-74.26,,
1318.379,-68.64,,
1318.394,-69.26,,
1318.409,-68.15,,
1318.424,-68.44,,
1318.439,-67.77,,
1318.454,-67.99,,
1318.469,-65.47,,
1318.484,-66.62,,
1318.499,-68.54,,
1318.514,-67.14,,
1318.529,-65.02,,
1318.544,-68.51,,
1318.559,-73.33,,
1318.574,-67.84,,
1318.589,-68.26,,
1318.604,-72.6,,
1318.619,-70.03,,
1318.634,-71.89,,
1318.649,-73.55,,
1318.664,-68.32,,
1318.679,-67.64,,
1318.694,-79.67,,
1318.709,-210.0,,
1318.724,-69.74,,
1318.739,-74.24,,
1318.754,-75.94,,
1318.769,-69.35,,
1318.784,-210.0,,
1318.799,-80.05,,
1318.814,-72.98,,
1318.829,-210.0,,
1318.844,-210.0,,
1318.859,-210.0,,
1318.874,-210.0,,
1318.889,-210.0,,
1318.904,-74.44,,
1318.919,-76.94,,
1318.934,-210.0,,
1318.949,-210.0,,
1318.964,-75.9,,
1318.979,-210.0,,
1318.994,-210.0,,
1319.009,-81.21,,
1319.024,-210.0,,
1319.039,-77.06,,
1319.054,-210.0,,
1319.069,-210.0,,
1319.084,-210.0,,
1319.099,-210.0,,
1319.114,-210.0,,
1319.129,-210.0,,
1319.144,-210.0,,
1319.159,-210.0,,
1319.174,-210.0,,
1319.189,-210.0,,
1319.204,-210.0,,
1319.219,-210.0,,
1319.234,-210.0,,
1319.249,-210.0,,
1319.264,-80.12,,
1319.279,-73.26,,
1319.294,-210.0,,
1319.309,-210.0,,
1319.324,-77.24,,
1319.339,-210.0,,
1319.354,-73.63,,
1319.369,-69.06,,
1319.384,-69.78,,
1319.399,-75.7,,
1319.414,-210.0,,
1319.429,-69.63,,
1319.444,-69.07,,
1319.459,-210.0,,
1319.474,-210.0,,
1319.489,-210.0,,
1319.504,-74.45,,
1319.519,-210.0,,
1319.534,-210.0,,
1319.549,-88.47,,
1319.564,-69.0,,
1319.579,-70.49,,
1319.594,-75.0,,
1319.609,-67.58,,
1319.624,-66.79,,
1319.639,-71.14,,
1319.654,-71.35,,
1319.669,-68.82,,
1319.684,-69.35,,
1319.699,-83.9,,
1319.714,-70.27,,
1319.729,-68.9,,
1319.744,-67.83,,
1319.759,-86.74,,
1319.774,-71.22,,
1319.789,-66.93,,
1319.804,-70.63,,
1319.819,-210.0,,
1319.834,-210.0,,
1319.849,-73.26,,
1319.864,-70.39,,
1319.879,-74.21,,
1319.894,-72.6,,
1319.909,-69.62,,
1319.924,-75.61,,
1319.939,-74.79,,
1319.954,-70.15,,
1319.969,-68.35,,
1319.984,-70.84,,
1319.999,-72.25,,
1320.014,-68.44,,
1320.029,-66.16,,
1320.044,-69.8,,
1320.059,-73.61,,
1320.074,-67.44,,
1320.089,-67.16,,
1320.104,-68.19,,
1320.119,-71.18,,
1320.134,-67.37,,
1320.149,-66.8,,
1320.164,-67.96,,
1320.179,-68.14,,
1320.194,-65.58,,
1320.209,-65.64,,
1320.224,-66.83,,
1320.239,-64.68,,
1320.254,-63.76,,
1320.269,-64.09,,
1320.284,-67.71,,
1320.299,-68.07,,
1320.314,-64.3,,
1320.329,-64.82,,
1320.344,-66.95,,
1320.359,-68.33,,
1320.374,-64.85,,
1320.389,-64.24,,
1320.404,-64.76,,
1320.419,-64.67,,
1320.434,-64.51,,
1320.449,-64.98,,
1320.464,-64.27,,
1320.479,-63.84,,
1320.494,-63.69,,
1320.509,-63.6,,
1320.524,-63.44,,
1320.539,-63.21,,
1320.554,-62.69,,
1320.569,-63.34,,
1320.584,-65.42,,
1320.599,-63.72,,
1320.614,-63.38,,
1320.629,-65.52,,
1320.644,-66.22,,
1320.659,-63.64,,
1320.674,-63.59,,
1320.689,-65.58,,
1320.704,-65.36,,
1320.719,-65.98,,
1320.734,-66.09,,
1320.749,-67.34,,
1320.764,-66.75,,
1320.779,-66.54,,
1320.794,-66.3,,
1320.809,-65.46,,
1320.824,-67.02,,
1320.839,-64.08,,
1320.854,-63.64,,
1320.869,-65.76,,
1320.884,-66.95,,
1320.899,-64.3,,
1320.914,-64.44,,
1320.929,-66.78,,
1320.944,-65.19,,
1320.959,-63.99,,
1320.974,-64.95,,
1320.989,-68.79,,
1321.004,-65.53,,
1321.019,-64.73,,
1321.034,-65.77,,
1321.049,-66.87,,
1321.064,-64.72,,
1321.079,-64.85,,
1321.094,-64.39,,
1321.109,-66.11,,
1321.124,-65.8,,
1321.139,-64.1,,
1321.154,-64.26,,
1321.169,-66.21,,
1321.184,-64.37,,
1321.199,-64.32,,
1321.214,-65.53,,
1321.229,-67.08,,
1321.244,-65.49,,
1321.259,-65.06,,
1321.274,-67.24,,
1321.289,-68.06,,
1321.304,-66.6,,
1321.319,-66.33,,
1321.334,-67.58,,
1321.349,-69.0,,
1321.364,-65.96,,
1321.379,-66.49,,
1321.394,-76.17,,
1321.409,-210.0,,
1321.424,-69.08,,
1321.439,-67.98,,
1321.454,-210.0,,
1321.469,-210.0,,
1321.484,-210.0,,
1321.499,-73.47,,
1321.514,-210.0,,
1321.529,-210.0,,
1321.544,-210.0,,
1321.559,-210.0,,
1321.574,-210.0,,
1321.589,-210.0,,
1321.604,-210.0,,
1321.619,-210.0,,
1321.634,-210.0,,
1321.649,-210.0,,
1321.664,-210.0,,
1321.679,-210.0,,
1321.694,-210.0,,
1321.709,-210.0,,
1321.724,-70.62,,
1321.739,-80.0,,
1321.754,-91.09,,
1321.769,-210.0,,
1321.784,-72.72,,
1321.799,-71.15,,
1321.814,-210.0,,
1321.829,-72.12,,
1321.844,-70.76,,
1321.859,-72.47,,
1321.874,-80.15,,
1321.889,-69.69,,
1321.904,-68.7,,
1321.919,-210.0,,
1321.934,-210.0,,
1321.949,-72.54,,
1321.964,-71.49,,
1321.979,-210.0,,
1321.994,-75.11,,
1322.009,-68.62,,
1322.024,-85.91,,
1322.039,-83.08,,
1322.054,-77.56,,
1322.069,-80.43,,
1322.084,-73.38,,
1322.099,-210.0,,
1322.114,-210.0,,
1322.129,-72.86,,
1322.144,-78.78,,
1322.159,-210.0,,
1322.174,-210.0,,
1322.189,-79.12,,
1322.204,-210.0,,
1322.219,-210.0,,
1322.234,-210.0,,
1322.249,-210.0,,
1322.264,-210.0,,
1322.279,-210.0,,
1322.294,-210.0,,
1322.309,-210.0,,
1322.324,-210.0,,
1322.339,-210.0,,
1322.354,-210.0,,
1322.369,-210.0,,
1322.384,-210.0,,
1322.399,-210.0,,
1322.414,-74.71,,
1322.429,-71.92,,
1322.444,-210.0,,
1322.459,-210.0,,
1322.474,-69.72,,
1322.489,-67.23,,
1322.504,-77.67,,
1322.519,-210.0,,
1322.534,-71.12,,
1322.549,-68.83,,
1322.564,-210.0,,
1322.579,-210.0,,
1322.594,-69.23,,
1322.609,-67.14,,
1322.624,-69.86,,
1322.639,-210.0,,
1322.654,-68.28,,
1322.669,-66.45,,
1322.684,-71.34,,
1322.699,-71.1,,
1322.714,-67.5,,
1322.729,-67.69,,
1322.744,-68.35,,
1322.759,-210.0,,
1322.774,-66.47,,
1322.789,-66.57,,
1322.804,-74.99,,
1322.819,-74.51,,
1322.834,-68.53,,
1322.849,-69.37,,
1322.864,-210.0,,
1322.879,-70.92,,
1322.894,-67.98,,
1322.909,-74.73,,
1322.924,-210.0,,
1322.939,-67.21,,
1322.954,-67.41,,
1322.969,-210.0,,
1322.984,-72.38,,
1322.999,-69.82,,
1323.014,-69.67,,
1323.029,-67.78,,
1323.044,-210.0,,
1323.059,-68.98,,
1323.074,-66.83,,
1323.089,-79.23,,
1323.104,-210.0,,
1323.119,-68.34,,
1323.134,-69.96,,
1323.149,-210.0,,
1323.164,-74.05,,
1323.179,-68.6,,
1323.194,-84.24,,
1323.209,-210.0,,
1323.224,-69.98,,
1323.239,-68.01,,
1323.254,-210.0,,
1323.269,-210.0,,
1323.284,-66.43,,
1323.299,-65.75,,
1323.314,-67.81,,
1323.329,-75.01,,
1323.344,-68.87,,
1323.359,-65.96,,
1323.374,-66.88,,
1323.389,-70.66,,
1323.404,-70.11,,
1323.419,-67.59,,
1323.434,-69.35,,
1323.449,-210.0,,
1323.464,-70.78,,
1323.479,-69.42,,
1323.494,-210.0,,
1323.509,-210.0,,
1323.524,-72.73,,
1323.539,-71.88,,
1323.554,-210.0,,
1323.569,-85.96,,
1323.584,-70.06,,
1323.599,-69.9,,
1323.614,-210.0,,
1323.629,-210.0,,
1323.644,-70.17,,
1323.659,-70.55,,
1323.674,-210.0,,
1323.689,-210.0,,
1323.704,-68.73,,
1323.719,-73.67,,
1323.734,-210.0,,
1323.749,-210.0,,
1323.764,-71.43,,
1323.779,-80.3,,
1323.794,-210.0,,
1323.809,-210.0,,
1323.824,-81.0,,
1323.839,-210.0,,
1323.854,-210.0,,
1323.869,-210.0,,
1323.884,-210.0,,
1323.899,-210.0,,
1323.914,-210.0,,
1323.929,-97.41,,
1323.944,-80.31,,
1323.959,-210.0,,
1323.974,-210.0,,
1323.989,-74.82,,
1324.004,-73.02,,
1324.019,-210.0,,
1324.034,-210.0,,
1324.049,-75.58,,
1324.064,-210.0,,
1324.079,-210.0,,
1324.094,-210.0,,
1324.109,-77.9,,
1324.124,-210.0,,
1324.139,-210.0,,
1324.154,-210.0,,
1324.169,-210.0,,
1324.184,-210.0,,
1324.199,-210.0,,
1324.214,-210.0,,
1324.229,-210.0,,
1324.244,-210.0,,
1324.259,-210.0,,
1324.274,-210.0,,
1324.289,-210.0,,
1324.304,-210.0,,
1324.319,-210.0,,
1324.334,-210.0,,
1324.349,-210.0,,
1324.364,-210.0,,
1324.379,-210.0,,
1324.394,-210.0,,
1324.409,-210.0,,
1324.424,-210.0,,
1324.439,-210.0,,
1324.454,-210.0,,
1324.469,-210.0,,
1324.484,-210.0,,
1324.499,-210.0,,
1324.514,-210.0,,
1324.529,-210.0,,
1324.544,-210.0,,
1324.559,-210.0,,
1324.574,-210.0,,
1324.589,-210.0,,
1324.604,-210.0,,
1324.619,-210.0,,
1324.634,-210.0,,
1324.649,-210.0,,
1324.664,-210.0,,
1324.679,-210.0,,
1324.694,-210.0,,
1324.709,-210.0,,
1324.724,-210.0,,
1324.739,-210.0,,
1324.754,-210.0,,
1324.769,-210.0,,
1324.784,-210.0,,
1324.799,-210.0,,
1324.814,-210.0,,
1324.829,-210.0,,
1324.844,-210.0,,
1324.859,-74.97,,
1324.874,-210.0,,
1324.889,-210.0,,
1324.904,-210.0,,
1324.919,-210.0,,
1324.934,-210.0,,
1324.949,-210.0,,
1324.964,-210.0,,
1324.979,-210.0,,
1324.994,-210.0,,
1325.009,-210.0,,
1325.024,-210.0,,
1325.039,-210.0,,
1325.054,-210.0,,
1325.069,-210.0,,
1325.084,-210.0,,
1325.099,-210.0,,
1325.114,-210.0,,
1325.129,-210.0,,
1325.144,-69.74,,
1325.159,-69.89,,
1325.174,-210.0,,
1325.189,-210.0,,
1325.204,-71.4,,
1325.219,-70.53,,
1325.234,-210.0,,
1325.25,-210.0,,
1325.264,-68.26,,
1325.279,-67.94,,
1325.294,-71.8,,
1325.309,-210.0,,
1325.324,-69.76,,
1325.339,-72.9,,
1325.354,-210.0,,
1325.37,-80.91,,
1325.385,-68.24,,
1325.4,-74.91,,
1325.414,-210.0,,
1325.429,-67.93,,
1325.444,-66.7,,
1325.459,-71.85,,
1325.474,-69.88,,
1325.49,-66.72,,
1325.505,-67.38,,
1325.52,-74.64,,
1325.535,-210.0,,
1325.549,-68.35,,
1325.564,-67.76,,
1325.579,-210.0,,
1325.594,-210.0,,
1325.609,-68.63,,
1325.625,-70.29,,
1325.64,-210.0,,
1325.655,-81.71,,
1325.67,-67.17,,
1325.685,-79.46,,
1325.699,-83.85,,
1325.714,-68.89,,
1325.729,-65.63,,
1325.745,-67.46,,
1325.76,-74.24,,
1325.775,-66.84,,
1325.79,-65.18,,
1325.805,-71.22,,
1325.82,-69.18,,
1325.834,-64.14,,
1325.849,-64.59,,
1325.865,-69.9,,
1325.88,-68.88,,
1325.895,-67.13,,
1325.91,-65.22,,
1325.925,-68.37,,
1325.94,-72.24,,
1325.955,-67.64,,
1325.97,-65.98,,
1325.984,-71.34,,
1326.0,-68.21,,
1326.015,-64.98,,
1326.03,-66.74,,
1326.045,-68.5,,
1326.06,-66.21,,
1326.075,-65.02,,
1326.09,-66.66,,
1326.105,-69.33,,
1326.12,-66.55,,
1326.135,-65.33,,
1326.15,-69.67,,
1326.165,-66.95,,
1326.18,-64.46,,
1326.195,-64.4,,
1326.21,-66.53,,
1326.225,-65.59,,
1326.24,-63.66,,
1326.255,-65.2,,
1326.27,-66.63,,
1326.285,-66.85,,
1326.3,-66.04,,
1326.315,-65.28,,
1326.33,-65.8,,
1326.345,-67.54,,
1326.36,-64.6,,
1326.375,-63.92,,
1326.39,-66.84,,
1326.405,-66.04,,
1326.42,-63.76,,
1326.435,-64.34,,
1326.45,-68.0,,
1326.465,-66.48,,
1326.48,-63.88,,
1326.495,-65.63,,
1326.51,-68.13,,
1326.525,-65.02,,
1326.54,-64.93,,
1326.555,-69.49,,
1326.57,-68.02,,
1326.585,-64.72,,
1326.6,-65.14,,
1326.615,-67.36,,
1326.63,-64.92,,
1326.645,-63.81,,
1326.66,-65.42,,
1326.675,-65.86,,
1326.69,-63.24,,
1326.705,-63.68,,
1326.72,-65.74,,
1326.735,-65.78,,
1326.75,-65.01,,
1326.765,-65.13,,
1326.78,-66.81,,
1326.795,-67.22,,
1326.81,-64.67,,
1326.825,-64.24,,
1326.84,-68.23,,
1326.855,-67.9,,
1326.87,-65.41,,
1326.885,-66.42,,
1326.9,-67.79,,
1326.915,-66.95,,
1326.93,-64.6,,
1326.945,-65.87,,
1326.96,-70.28,,
1326.975,-68.69,,
1326.99,-65.33,,
1327.005,-67.32,,
1327.02,-210.0,,
1327.035,-67.09,,
1327.05,-66.3,,
1327.065,-75.22,,
1327.08,-76.78,,
1327.095,-66.24,,
1327.11,-66.47,,
1327.125,-84.27,,
1327.14,-74.24,,
1327.155,-66.57,,
1327.17,-67.46,,
1327.185,-74.55,,
1327.2,-69.71,,
1327.215,-66.43,,
1327.23,-71.11,,
1327.245,-77.3,,
1327.26,-67.4,,
1327.275,-65.1,,
1327.29,-68.1,,
1327.305,-70.48,,
1327.32,-66.31,,
1327.335,-67.52,,
1327.35,-67.7,,
1327.365,-67.95,,
1327.38,-68.0,,
1327.395,-68.69,,
1327.41,-69.69,,
1327.425,-68.68,,
1327.44,-68.14,,
1327.455,-67.99,,
1327.47,-67.6,,
1327.485,-69.81,,
1327.5,-68.45,,
1327.515,-68.24,,
1327.53,-67.97,,
1327.545,-66.61,,
1327.56,-65.4,,
1327.575,-66.59,,
1327.59,-70.64,,
1327.605,-68.23,,
1327.62,-65.43,,
1327.635,-69.25,,
1327.65,-72.88,,
1327.665,-65.79,,
1327.68,-66.61,,
1327.695,-210.0,,
1327.71,-91.0,,
1327.725,-66.89,,
1327.74,-68.92,,
1327.755,-210.0,,
1327.77,-69.71,,
1327.785,-66.12,,
1327.8,-71.31,,
1327.815,-74.54,,
1327.83,-69.66,,
1327.845,-67.29,,
1327.86,-71.88,,
1327.875,-69.12,,
1327.89,-65.82,,
1327.905,-66.98,,
1327.92,-69.01,,
1327.935,-68.14,,
1327.95,-65.78,,
1327.965,-65.81,,
1327.98,-65.76,,
1327.995,-65.27,,
1328.01,-66.09,,
1328.025,-66.24,,
1328.04,-66.06,,
1328.055,-65.87,,
1328.07,-64.39,,
1328.085,-64.62,,
1328.1,-66.3,,
1328.115,-65.66,,
1328.13,-64.3,,
1328.145,-65.33,,
1328.16,-64.51,,
1328.175,-64.58,,
1328.19,-63.33,,
1328.205,-64.14,,
1328.22,-65.39,,
1328.235,-63.71,,
1328.25,-63.82,,
1328.265,-65.68,,
1328.28,-66.18,,
1328.295,-64.17,,
1328.31,-64.83,,
1328.325,-66.49,,
1328.34,-65.64,,
1328.355,-64.23,,
1328.37,-66.19,,
1328.385,-66.85,,
1328.4,-64.06,,
1328.415,-63.32,,
1328.43,-65.88,,
1328.445,-65.8,,
1328.46,-63.84,,
1328.475,-65.1,,
1328.49,-65.62,,
1328.505,-63.94,,
1328.52,-63.14,,
1328.535,-64.24,,
1328.55,-65.53,,
1328.565,-64.4,,
1328.58,-64.82,,
1328.595,-64.47,,
1328.61,-64.0,,
1328.625,-64.82,,
1328.64,-65.17,,
1328.655,-64.91,,
1328.67,-65.25,,
1328.685,-65.92,,
1328.7,-65.21,,
1328.715,-64.53,,
1328.73,-65.16,,
1328.745,-65.44,,
1328.76,-65.17,,
1328.775,-64.52,,
1328.79,-65.57,,
1328.805,-62.91,,
1328.82,-64.19,,
1328.835,-65.93,,
1328.85,-64.76,,
1328.865,-63.66,,
1328.88,-65.31,,
1328.895,-67.02,,
1328.91,-64.73,,
1328.925,-64.63,,
1328.94,-68.46,,
1328.955,-68.24,,
1328.97,-65.13,,
1328.985,-65.15,,
1329.0,-67.74,,
1329.015,-66.15,,
1329.03,-63.93,,
1329.045,-64.93,,
1329.06,-66.26,,
1329.075,-66.09,,
1329.09,-65.13,,
1329.105,-66.9,,
1329.12,-67.1,,
1329.135,-65.74,,
1329.15,-65.39,,
1329.165,-68.59,,
1329.18,-67.74,,
1329.195,-69.69,,
1329.21,-73.52,,
1329.225,-71.4,,
1329.24,-71.7,,
1329.255,-72.55,,
1329.27,-73.53,,
1329.285,-71.41,,
1329.3,-76.44,,
1329.315,-78.86,,
1329.33,-210.0,,
1329.345,-77.22,,
1329.36,-210.0,,
1329.375,-210.0,,
1329.39,-210.0,,
1329.405,-210.0,,
1329.42,-210.0,,
1329.435,-73.51,,
1329.45,-210.0,,
1329.465,-210.0,,
1329.48,-75.76,,
1329.495,-79.04,,
1329.51,-210.0,,
1329.525,-210.0,,
1329.54,-210.0,,
1329.555,-210.0,,
1329.57,-210.0,,
1329.585,-210.0,,
1329.6,-210.0,,
1329.615,-210.0,,
1329.63,-210.0,,
1329.645,-210.0,,
1329.66,-210.0,,
1329.675,-210.0,,
1329.69,-210.0,,
1329.705,-71.39,,
1329.72,-210.0,,
1329.735,-210.0,,
1329.75,-210.0,,
1329.765,-70.94,,
1329.78,-210.0,,
1329.795,-76.08,,
1329.81,-210.0,,
1329.825,-210.0,,
1329.84,-210.0,,
1329.855,-74.66,,
1329.87,-210.0,,
1329.885,-210.0,,
1329.9,-71.48,,
1329.915,-72.13,,
1329.93,-210.0,,
1329.945,-81.52,,
1329.96,-71.13,,
1329.975,-77.62,,
1329.99,-210.0,,
1330.005,-79.36,,
1330.02,-73.34,,
1330.035,-210.0,,
1330.05,-210.0,,
1330.065,-72.58,,
1330.08,-72.16,,
1330.095,-210.0,,
1330.11,-210.0,,
1330.125,-74.47,,
1330.14,-79.01,,
1330.155,-210.0,,
1330.17,-210.0,,
1330.185,-76.07,,
1330.2,-210.0,,
1330.215,-210.0,,
1330.23,-72.64,,
1330.245,-69.81,,
1330.26,-74.83,,
1330.275,-70.22,,
1330.29,-67.68,,
1330.305,-70.45,,
1330.32,-73.48,,
1330.335,-67.31,,
1330.35,-66.87,,
1330.365,-66.55,,
1330.38,-66.5,,
1330.395,-65.4,,
1330.41,-64.38,,
1330.425,-66.44,,
1330.44,-67.29,,
1330.455,-64.57,,
1330.47,-65.21,,
1330.485,-68.59,,
1330.5,-67.02,,
1330.515,-64.12,,
1330.53,-65.83,,
1330.545,-68.67,,
1330.56,-65.05,,
1330.575,-65.04,,
1330.59,-67.81,,
1330.605,-66.83,,
1330.62,-63.6,,
1330.635,-63.69,,
1330.65,-63.79,,
1330.665,-64.61,,
1330.68,-63.55,,
1330.695,-63.26,,
1330.71,-64.96,,
1330.725,-65.27,,
1330.74,-63.73,,
1330.755,-64.11,,
1330.77,-64.43,,
1330.785,-64.13,,
1330.8,-64.0,,
1330.815,-64.61,,
1330.83,-64.91,,
1330.845,-64.78,,
1330.86,-64.89,,
1330.875,-64.77,,
1330.89,-64.91,,
1330.905,-64.07,,
1330.92,-64.3,,
1330.935,-64.3,,
1330.95,-63.62,,
1330.965,-63.4,,
1330.98,-63.68,,
1330.995,-63.72,,
1331.01,-63.78,,
1331.025,-64.16,,
1331.04,-63.59,,
1331.055,-63.59,,
1331.07,-64.41,,
1331.085,-65.07,,
1331.1,-64.25,,
1331.115,-64.06,,
1331.13,-64.72,,
1331.145,-65.15,,
1331.16,-64.44,,
1331.175,-65.09,,
1331.19,-64.82,,
1331.205,-65.23,,
1331.22,-65.52,,
1331.235,-65.04,,
1331.25,-68.67,,
1331.265,-66.16,,
1331.28,-64.12,,
1331.295,-67.81,,
1331.31,-67.2,,
1331.325,-65.08,,
1331.34,-65.29,,
1331.355,-68.58,,
1331.37,-69.75,,
1331.385,-65.73,,
1331.4,-67.95,,
1331.415,-71.21,,
1331.43,-66.56,,
1331.445,-65.36,,
1331.46,-70.08,,
1331.475,-71.89,,
1331.49,-66.03,,
1331.505,-66.41,,
1331.52,-72.19,,
1331.535,-69.65,,
1331.55,-65.16,,
1331.565,-66.0,,
1331.58,-70.4,,
1331.595,-66.5,,
1331.61,-64.88,,
1331.625,-68.25,,
1331.64,-69.35,,
1331.655,-68.19,,
1331.67,-66.45,,
1331.685,-68.73,,
1331.7,-69.35,,
1331.715,-68.16,,
1331.73,-68.0,,
1331.745,-73.7,,
1331.76,-70.66,,
1331.775,-73.93,,
1331.79,-77.27,,
1331.805,-74.35,,
1331.82,-72.07,,
1331.835,-68.58,,
1331.85,-70.01,,
1331.865,-69.34,,
1331.88,-70.3,,
1331.895,-71.44,,
1331.91,-72.67,,
1331.925,-73.58,,
1331.94,-75.94,,
1331.955,-72.17,,
1331.97,-73.27,,
1331.985,-72.24,,
1332.0,-71.36,,
1332.015,-73.13,,
1332.03,-69.47,,
1332.045,-73.76,,
1332.06,-76.44,,
1332.075,-71.08,,
1332.09,-68.9,,
1332.105,-71.17,,
1332.12,-70.67,,
1332.135,-68.21,,
1332.15,-66.86,,
1332.165,-66.63,,
1332.18,-66.19,,
1332.195,-65.86,,
1332.21,-65.86,,
1332.225,-65.31,,
1332.24,-66.32,,
1332.255,-63.76,,
1332.27,-64.13,,
1332.285,-67.15,,
1332.3,-64.82,,
1332.315,-64.05,,
1332.33,-64.93,,
1332.345,-66.76,,
1332.36,-64.67,,
1332.375,-64.32,,
1332.39,-65.7,,
1332.405,-65.38,,
1332.42,-65.63,,
1332.435,-65.32,,
1332.45,-66.08,,
1332.465,-65.58,,
1332.48,-65.51,,
1332.495,-65.64,,
1332.51,-65.12,,
1332.525,-65.53,,
1332.54,-64.4,,
1332.555,-64.88,,
1332.57,-66.52,,
1332.585,-65.9,,
1332.6,-64.58,,
1332.615,-66.1,,
1332.63,-66.94,,
1332.645,-65.19,,
1332.66,-66.29,,
1332.675,-66.81,,
1332.69,-66.27,,
1332.705,-66.34,,
1332.72,-66.58,,
1332.735,-65.86,,
1332.75,-65.35,,
1332.765,-65.21,,
1332.78,-64.46,,
1332.795,-63.83,,
1332.81,-64.26,,
1332.825,-64.45,,
1332.84,-64.67,,
1332.855,-64.76,,
1332.87,-64.38,,
1332.885,-64.94,,
1332.9,-64.83,,
1332.915,-65.1,,
1332.93,-64.97,,
1332.945,-64.74,,
1332.96,-65.13,,
1332.975,-65.57,,
1332.99,-65.0,,
1333.005,-65.38,,
1333.02,-65.16,,
1333.035,-65.26,,
1333.05,-65.06,,
1333.065,-65.08,,
1333.08,-65.04,,
1333.095,-64.42,,
1333.11,-64.44,,
1333.125,-64.39,,
1333.141,-64.15,,
1333.155,-64.51,,
1333.17,-64.77,,
1333.185,-64.79,,
1333.2,-64.83,,
1333.215,-64.85,,
1333.23,-65.88,,
1333.245,-66.2,,
1333.26,-66.41,,
1333.276,-66.96,,
1333.29,-66.97,,
1333.305,-68.09,,
1333.32,-67.43,,
1333.335,-67.53,,
1333.35,-67.22,,
1333.365,-65.9,,
1333.38,-65.42,,
1333.396,-66.51,,
1333.411,-69.17,,
1333.426,-66.42,,
1333.44,-65.68,,
1333.455,-68.25,,
1333.47,-70.64,,
1333.485,-66.22,,
1333.5,-67.18,,
1333.516,-210.0,,
1333.531,-69.1,,
1333.546,-67.68,,
1333.561,-70.09,,
1333.575,-86.4,,
1333.59,-68.22,,
1333.605,-69.03,,
1333.62,-210.0,,
1333.635,-71.46,,
1333.651,-69.04,,
1333.666,-69.14,,
1333.681,-210.0,,
1333.696,-72.76,,
1333.711,-67.32,,
1333.725,-71.21,,
1333.74,-82.92,,
1333.755,-67.41,,
1333.771,-67.5,,
1333.786,-210.0,,
1333.801,-210.0,,
1333.816,-69.86,,
1333.831,-79.05,,
1333.846,-210.0,,
1333.86,-82.9,,
1333.875,-74.55,,
1333.891,-210.0,,
1333.906,-210.0,,
1333.921,-72.89,,
1333.936,-79.05,,
1333.951,-210.0,,
1333.966,-210.0,,
1333.981,-70.73,,
1333.996,-210.0,,
1334.01,-210.0,,
1334.026,-80.32,,
1334.041,-69.79,,
1334.056,-210.0,,
1334.071,-210.0,,
1334.086,-74.8,,
1334.101,-210.0,,
1334.116,-210.0,,
1334.131,-210.0,,
1334.146,-210.0,,
1334.161,-210.0,,
1334.176,-210.0,,
1334.191,-210.0,,
1334.206,-210.0,,
1334.221,-210.0,,
1334.236,-210.0,,
1334.251,-210.0,,
1334.266,-210.0,,
1334.281,-210.0,,
1334.296,-210.0,,
1334.311,-78.51,,
1334.326,-210.0,,
1334.341,-210.0,,
1334.356,-77.31,,
1334.371,-73.88,,
1334.386,-210.0,,
1334.401,-210.0,,
1334.416,-70.46,,
1334.431,-71.35,,
1334.446,-210.0,,
1334.461,-210.0,,
1334.476,-69.06,,
1334.491,-210.0,,
1334.506,-210.0,,
1334.521,-74.87,,
1334.536,-72.79,,
1334.551,-210.0,,
1334.566,-210.0,,
1334.581,-69.71,,
1334.596,-72.21,,
1334.611,-210.0,,
1334.626,-77.22,,
1334.641,-68.98,,
1334.656,-210.0,,
1334.671,-210.0,,
1334.686,-70.35,,
1334.701,-68.52,,
1334.716,-210.0,,
1334.731,-78.17,,
1334.746,-67.61,,
1334.761,-76.02,,
1334.776,-210.0,,
1334.791,-72.25,,
1334.806,-68.61,,
1334.821,-210.0,,
1334.836,-210.0,,
1334.851,-67.79,,
1334.866,-70.75,,
1334.881,-210.0,,
1334.896,-210.0,,
1334.911,-67.63,,
1334.926,-71.65,,
1334.941,-210.0,,
1334.956,-69.31,,
1334.971,-68.21,,
1334.986,-74.46,,
1335.001,-210.0,,
1335.016,-68.57,,
1335.031,-68.93,,
1335.046,-210.0,,
1335.061,-210.0,,
1335.076,-68.62,,
1335.091,-71.17,,
1335.106,-210.0,,
1335.121,-73.41,,
1335.136,-67.55,,
1335.151,-71.37,,
1335.166,-210.0,,
1335.181,-68.85,,
1335.196,-67.34,,
1335.211,-75.25,,
1335.226,-71.2,,
1335.241,-66.48,,
1335.256,-66.37,,
1335.271,-69.74,,
1335.286,-67.5,,
1335.301,-66.26,,
1335.316,-67.61,,
1335.331,-74.63,,
1335.346,-67.53,,
1335.361,-67.35,,
1335.376,-71.85,,
1335.391,-69.19,,
1335.406,-67.33,,
1335.421,-210.0,,
1335.436,-75.51,,
1335.451,-66.22,,
1335.466,-68.4,,
1335.481,-78.52,,
1335.496,-66.93,,
1335.511,-65.0,,
1335.526,-67.68,,
1335.541,-69.23,,
1335.556,-65.24,,
1335.571,-65.38,,
1335.586,-70.66,,
1335.601,-69.07,,
1335.616,-65.31,,
1335.631,-66.58,,
1335.646,-70.93,,
1335.661,-66.1,,
1335.676,-65.32,,
1335.691,-69.85,,
1335.706,-71.07,,
1335.721,-65.67,,
1335.736,-68.62,,
1335.751,-210.0,,
1335.766,-69.7,,
1335.781,-65.19,,
1335.796,-66.92,,
1335.811,-71.35,,
1335.826,-65.64,,
1335.841,-64.79,,
1335.856,-70.19,,
1335.871,-68.56,,
1335.886,-64.19,,
1335.901,-64.76,,
1335.916,-69.38,,
1335.931,-66.91,,
1335.946,-64.49,,
1335.961,-67.22,,
1335.976,-68.18,,
1335.991,-65.78,,
1336.006,-63.99,,
1336.021,-66.72,,
1336.036,-68.31,,
1336.051,-64.85,,
1336.066,-64.11,,
1336.081,-67.3,,
1336.096,-66.54,,
1336.111,-63.75,,
1336.126,-64.3,,
1336.141,-66.78,,
1336.156,-65.53,,
1336.171,-63.02,,
1336.186,-65.02,,
1336.201,-66.74,,
1336.216,-64.59,,
1336.231,-63.74,,
1336.246,-66.69,,
1336.261,-67.51,,
1336.276,-65.9,,
1336.291,-65.6,,
1336.306,-68.77,,
1336.321,-68.13,,
1336.336,-65.37,,
1336.351,-67.71,,
1336.366,-70.23,,
1336.381,-66.6,,
1336.396,-65.98,,
1336.411,-72.1,,
1336.426,-65.53,,
1336.441,-65.05,,
1336.456,-66.82,,
1336.471,-66.96,,
1336.486,-65.02,,
1336.501,-65.51,,
1336.516,-70.38,,
1336.531,-67.16,,
1336.546,-64.77,,
1336.561,-66.23,,
1336.576,-69.05,,
1336.591,-64.79,,
1336.606,-64.75,,
1336.621,-67.42,,
1336.636,-68.31,,
1336.651,-64.93,,
1336.666,-65.58,,
1336.681,-73.32,,
1336.696,-66.5,,
1336.711,-64.96,,
1336.726,-67.89,,
1336.741,-68.09,,
1336.756,-63.87,,
1336.771,-64.45,,
1336.786,-67.11,,
1336.801,-66.85,,
1336.816,-64.14,,
1336.831,-65.16,,
1336.846,-68.5,,
1336.861,-65.44,,
1336.876,-64.56,,
1336.891,-66.55,,
1336.906,-71.35,,
1336.921,-65.76,,
1336.936,-65.42,,
1336.951,-70.94,,
1336.966,-68.78,,
1336.981,-65.56,,
1336.996,-65.76,,
1337.011,-70.22,,
1337.026,-66.2,,
1337.041,-64.52,,
1337.056,-65.26,,
1337.071,-68.65,,
1337.086,-65.71,,
1337.101,-64.29,,
1337.116,-67.33,,
1337.131,-68.1,,
1337.146,-64.84,,
1337.161,-65.89,,
1337.176,-73.41,,
1337.191,-67.54,,
1337.206,-64.97,,
1337.221,-66.29,,
1337.236,-79.01,,
1337.251,-66.13,,
1337.266,-65.17,,
1337.281,-66.97,,
1337.296,-66.83,,
1337.311,-64.04,,
1337.326,-64.19,,
1337.341,-66.41,,
1337.356,-64.57,,
1337.371,-63.13,,
1337.386,-64.67,,
1337.401,-66.47,,
1337.416,-63.43,,
1337.431,-63.92,,
1337.446,-66.2,,
1337.461,-66.15,,
1337.476,-64.43,,
1337.491,-65.26,,
1337.506,-68.6,,
1337.521,-65.61,,
1337.536,-64.08,,
1337.551,-66.54,,
1337.566,-68.3,,
1337.581,-65.03,,
1337.596,-65.08,,
1337.611,-68.2,,
1337.626,-67.0,,
1337.641,-63.84,,
1337.656,-64.05,,
1337.671,-66.79,,
1337.686,-63.88,,
1337.701,-63.31,,
1337.716,-63.91,,
1337.731,-65.81,,
1337.746,-63.74,,
1337.761,-63.89,,
1337.776,-65.43,,
1337.791,-65.99,,
1337.806,-64.19,,
1337.821,-65.95,,
1337.836,-69.88,,
1337.851,-66.76,,
1337.866,-65.35,,
1337.881,-67.27,,
1337.896,-69.89,,
1337.911,-66.1,,
1337.926,-64.87,,
1337.941,-65.46,,
1337.956,-65.65,,
1337.971,-63.85,,
1337.986,-64.26,,
1338.001,-66.27,,
1338.016,-66.12,,
1338.031,-65.22,,
1338.046,-65.69,,
1338.061,-68.91,,
1338.076,-66.41,,
1338.091,-65.19,,
1338.106,-68.44,,
1338.121,-73.78,,
1338.136,-67.88,,
1338.151,-75.79,,
1338.166,-210.0,,
1338.181,-69.85,,
1338.196,-69.71,,
1338.211,-210.0,,
1338.226,-210.0,,
1338.241,-67.39,,
1338.256,-68.62,,
1338.271,-77.41,,
1338.286,-69.55,,
1338.301,-66.49,,
1338.316,-81.51,,
1338.331,-210.0,,
1338.346,-69.74,,
1338.361,-68.99,,
1338.376,-210.0,,
1338.391,-210.0,,
1338.406,-72.13,,
1338.421,-210.0,,
1338.436,-210.0,,
1338.451,-210.0,,
1338.466,-210.0,,
1338.481,-210.0,,
1338.496,-210.0,,
1338.511,-78.02,,
1338.526,-87.93,,
1338.541,-210.0,,
1338.556,-210.0,,
1338.571,-70.84,,
1338.586,-210.0,,
1338.601,-210.0,,
1338.616,-210.0,,
1338.631,-72.76,,
1338.646,-210.0,,
1338.661,-210.0,,
1338.676,-210.0,,
1338.691,-210.0,,
1338.706,-210.0,,
1338.721,-210.0,,
1338.736,-210.0,,
1338.751,-210.0,,
1338.766,-210.0,,
1338.781,-210.0,,
1338.796,-76.54,,
1338.811,-210.0,,
1338.826,-210.0,,
1338.841,-72.99,,
1338.856,-69.68,,
1338.871,-210.0,,
1338.886,-210.0,,
1338.901,-69.15,,
1338.916,-70.3,,
1338.931,-210.0,,
1338.946,-210.0,,
1338.961,-78.66,,
1338.976,-210.0,,
1338.991,-210.0,,
1339.006,-210.0,,
1339.021,-210.0,,
1339.036,-210.0,,
1339.051,-210.0,,
1339.066,-210.0,,
1339.081,-210.0,,
1339.096,-210.0,,
1339.111,-210.0,,
1339.126,-75.97,,
1339.141,-210.0,,
1339.156,-67.11,,
1339.171,-65.97,,
1339.186,-69.52,,
1339.201,-67.97,,
1339.216,-64.82,,
1339.231,-66.89,,
1339.246,-70.18,,
1339.261,-68.04,,
1339.276,-66.48,,
1339.291,-70.79,,
1339.306,-210.0,,
1339.321,-68.67,,
1339.336,-67.8,,
1339.351,-78.77,,
1339.366,-77.38,,
1339.381,-67.09,,
1339.396,-69.15,,
1339.411,-71.46,,
1339.426,-67.37,,
1339.441,-64.58,,
1339.456,-67.65,,
1339.471,-66.45,,
1339.486,-64.29,,
1339.501,-65.58,,
1339.516,-68.77,,
1339.531,-67.33,,
1339.546,-65.2,,
1339.561,-68.11,,
1339.576,-70.79,,
1339.591,-66.08,,
1339.606,-65.3,,
1339.621,-68.33,,
1339.636,-68.17,,
1339.651,-65.3,,
1339.666,-66.47,,
1339.681,-69.04,,
1339.696,-66.24,,
1339.711,-64.52,,
1339.726,-67.39,,
1339.741,-67.95,,
1339.756,-65.34,,
1339.771,-65.09,,
1339.786,-67.64,,
1339.801,-66.73,,
1339.816,-65.4,,
1339.831,-66.48,,
1339.846,-68.24,,
1339.861,-67.36,,
1339.876,-68.64,,
1339.891,-67.58,,
1339.906,-67.42,,
1339.921,-68.07,,
1339.936,-68.75,,
1339.951,-68.4,,
1339.966,-70.41,,
1339.981,-73.13,,
1339.996,-68.76,,
1340.011,-67.67,,
1340.026,-68.49,,
1340.041,-69.61,,
1340.056,-66.29,,
1340.071,-68.21,,
1340.086,-71.18,,
1340.101,-67.84,,
1340.116,-66.3,,
1340.131,-67.77,,
1340.146,-71.46,,
1340.161,-210.0,,
1340.176,-79.37,,
1340.191,-72.84,,
1340.206,-210.0,,
1340.221,-210.0,,
1340.236,-78.99,,
1340.251,-210.0,,
1340.266,-210.0,,
1340.281,-210.0,,
1340.296,-80.03,,
1340.311,-210.0,,
1340.326,-210.0,,
1340.341,-210.0,,
1340.356,-74.42,,
1340.371,-210.0,,
1340.386,-210.0,,
1340.401,-70.79,,
1340.416,-210.0,,
1340.431,-210.0,,
1340.446,-210.0,,
1340.461,-73.62,,
1340.476,-210.0,,
1340.491,-210.0,,
1340.506,-80.31,,
1340.521,-73.52,,
1340.536,-210.0,,
1340.551,-210.0,,
1340.566,-210.0,,
1340.581,-210.0,,
1340.596,-210.0,,
1340.611,-210.0,,
1340.626,-210.0,,
1340.641,-74.21,,
1340.656,-76.87,,
1340.671,-210.0,,
1340.686,-210.0,,
1340.701,-77.16,,
1340.716,-76.5,,
1340.731,-210.0,,
1340.746,-75.5,,
1340.761,-81.07,,
1340.776,-79.73,,
1340.791,-77.85,,
1340.806,-75.36,,
1340.821,-210.0,,
1340.836,-210.0,,
1340.851,-210.0,,
1340.866,-210.0,,
1340.881,-70.98,,
1340.896,-210.0,,
1340.911,-210.0,,
1340.926,-210.0,,
1340.941,-71.02,,
1340.956,-210.0,,
1340.971,-76.45,,
1340.986,-70.79,,
1341.001,-69.72,,
1341.016,-69.57,,
1341.031,-72.19,,
1341.046,-71.79,,
1341.061,-77.43,,
1341.076,-71.3,,
1341.091,-71.96,,
1341.106,-70.54,,
1341.121,-71.06,,
1341.136,-70.77,,
1341.151,-70.92,,
1341.167,-70.89,,
1341.181,-74.05,,
1341.196,-71.35,,
1341.211,-70.66,,
1341.226,-68.98,,
1341.241,-69.08,,
1341.256,-67.31,,
1341.271,-67.49,,
1341.286,-66.36,,
1341.302,-66.48,,
1341.316,-67.05,,
1341.331,-66.5,,
1341.346,-66.02,,
1341.361,-65.78,,
1341.376,-66.65,,
1341.391,-67.19,,
1341.406,-76.4,,
1341.422,-70.07,,
1341.437,-66.94,,
1341.452,-67.85,,
1341.466,-210.0,,
1341.481,-68.74,,
1341.496,-67.28,,
1341.511,-71.58,,
1341.526,-210.0,,
1341.542,-67.8,,
1341.557,-72.97,,
1341.572,-69.73,,
1341.587,-69.48,,
1341.601,-69.36,,
1341.616,-67.72,,
1341.631,-70.82,,
1341.646,-76.73,,
1341.661,-210.0,,
1341.677,-79.35,,
1341.692,-210.0,,
1341.707,-210.0,,
1341.722,-210.0,,
1341.737,-210.0,,
1341.751,-210.0,,
1341.766,-210.0,,
1341.781,-210.0,,
1341.797,-210.0,,
1341.812,-210.0,,
1341.827,-210.0,,
1341.842,-210.0,,
1341.857,-210.0,,
1341.872,-210.0,,
1341.887,-210.0,,
1341.901,-210.0,,
1341.917,-210.0,,
1341.932,-210.0,,
1341.947,-210.0,,
1341.962,-210.0,,
1341.977,-210.0,,
1341.992,-79.52,,
1342.007,-71.71,,
1342.022,-210.0,,
1342.036,-210.0,,
1342.052,-70.35,,
1342.067,-74.44,,
1342.082,-73.13,,
1342.097,-69.24,,
1342.112,-71.03,,
1342.127,-72.74,,
1342.142,-73.33,,
1342.157,-70.91,,
1342.172,-70.68,,
1342.187,-68.18,,
1342.202,-68.32,,
1342.217,-67.73,,
1342.232,-68.07,,
1342.247,-68.48,,
1342.262,-68.96,,
1342.277,-69.14,,
1342.292,-70.23,,
1342.307,-73.7,,
1342.322,-67.93,,
1342.337,-71.82,,
1342.352,-72.12,,
1342.367,-76.72,,
1342.382,-73.43,,
1342.397,-210.0,,
1342.412,-68.88,,
1342.427,-66.57,,
1342.442,-68.78,,
1342.457,-70.38,,
1342.472,-64.94,,
1342.487,-66.0,,
1342.502,-68.52,,
1342.517,-67.12,,
1342.532,-64.09,,
1342.547,-66.0,,
1342.562,-67.01,,
1342.577,-64.29,,
1342.592,-63.5,,
1342.607,-65.47,,
1342.622,-66.62,,
1342.637,-63.38,,
1342.652,-64.03,,
1342.667,-66.11,,
1342.682,-65.14,,
1342.697,-65.1,,
1342.712,-64.6,,
1342.727,-64.73,,
1342.742,-64.34,,
1342.757,-63.59,,
1342.772,-63.78,,
1342.787,-63.72,,
1342.802,-65.57,,
1342.817,-63.83,,
1342.832,-63.15,,
1342.847,-64.44,,
1342.862,-64.78,,
1342.877,-63.78,,
1342.892,-63.94,,
1342.907,-65.21,,
1342.922,-64.48,,
1342.937,-63.67,,
1342.952,-64.17,,
1342.967,-65.52,,
1342.982,-64.0,,
1342.997,-63.81,,
1343.012,-65.22,,
1343.027,-65.56,,
1343.042,-65.05,,
1343.057,-65.04,,
1343.072,-66.03,,
1343.087,-67.24,,
1343.102,-69.99,,
1343.117,-69.53,,
1343.132,-66.7,,
1343.147,-67.66,,
1343.162,-69.5,,
1343.177,-68.41,,
1343.192,-67.8,,
1343.207,-70.7,,
1343.222,-71.78,,
1343.237,-68.51,,
1343.252,-68.85,,
1343.267,-70.18,,
1343.282,-70.83,,
1343.297,-68.64,,
1343.312,-68.78,,
1343.327,-210.0,,
1343.342,-72.42,,
1343.357,-70.16,,
1343.372,-68.86,,
1343.387,-69.23,,
1343.402,-69.45,,
1343.417,-69.4,,
1343.432,-69.29,,
1343.447,-70.25,,
1343.462,-70.1,,
1343.477,-70.04,,
1343.492,-68.09,,
1343.507,-69.54,,
1343.522,-68.76,,
1343.537,-210.0,,
1343.552,-210.0,,
1343.567,-71.09,,
1343.582,-210.0,,
1343.597,-210.0,,
1343.612,-210.0,,
1343.627,-75.13,,
1343.642,-210.0,,
1343.657,-210.0,,
1343.672,-74.19,,
1343.687,-73.97,,
1343.702,-71.26,,
1343.717,-75.33,,
1343.732,-77.3,,
1343.747,-73.02,,
1343.762,-71.92,,
1343.777,-70.67,,
1343.792,-78.59,,
1343.807,-67.67,,
1343.822,-72.01,,
1343.837,-210.0,,
1343.852,-72.91,,
1343.867,-69.72,,
1343.882,-210.0,,
1343.897,-85.03,,
1343.912,-68.82,,
1343.927,-69.06,,
1343.942,-68.81,,
1343.957,-74.49,,
1343.972,-73.15,,
1343.987,-69.21,,
1344.002,-69.96,,
1344.017,-71.77,,
1344.032,-70.89,,
1344.047,-68.74,,
1344.062,-70.18,,
1344.077,-69.09,,
1344.092,-71.14,,
1344.107,-67.28,,
1344.122,-65.82,,
1344.137,-68.65,,
1344.152,-69.06,,
1344.167,-67.36,,
1344.182,-66.43,,
1344.197,-70.96,,
1344.212,-70.45,,
1344.227,-66.56,,
1344.242,-66.87,,
1344.257,-68.38,,
1344.272,-67.54,,
1344.287,-64.91,,
1344.302,-66.64,,
1344.317,-67.03,,
1344.332,-65.15,,
1344.347,-64.08,,
1344.362,-65.23,,
1344.377,-67.32,,
1344.392,-70.03,,
1344.407,-66.13,,
1344.422,-65.15,,
1344.437,-69.46,,
1344.452,-71.06,,
1344.467,-66.66,,
1344.482,-68.18,,
1344.497,-210.0,,
1344.512,-75.39,,
1344.527,-71.35,,
1344.542,-67.95,,
1344.557,-67.53,,
1344.572,-67.49,,
1344.587,-66.11,,
1344.602,-65.74,,
1344.617,-65.6,,
1344.632,-65.54,,
1344.647,-65.82,,
1344.662,-66.3,,
1344.677,-67.32,,
1344.692,-66.83,,
1344.707,-65.96,,
1344.722,-67.34,,
1344.737,-67.04,,
1344.752,-66.55,,
1344.767,-65.44,,
1344.782,-67.35,,
1344.797,-66.67,,
1344.812,-210.0,,
1344.827,-69.01,,
1344.842,-65.58,,
1344.857,-66.17,,
1344.872,-68.1,,
1344.887,-65.88,,
1344.902,-65.41,,
1344.917,-68.29,,
1344.932,-68.14,,
1344.947,-67.79,,
1344.962,-67.31,,
1344.977,-66.26,,
1344.992,-67.65,,
1345.007,-67.0,,
1345.022,-66.6,,
1345.037,-66.35,,
1345.052,-67.03,,
1345.067,-68.03,,
1345.082,-67.2,,
1345.097,-67.82,,
1345.112,-69.77,,
1345.127,-67.98,,
1345.142,-66.88,,
1345.157,-68.46,,
1345.172,-67.12,,
1345.187,-66.5,,
1345.202,-66.35,,
1345.217,-65.04,,
1345.232,-67.39,,
1345.247,-67.78,,
1345.262,-65.32,,
1345.277,-65.65,,
1345.292,-71.92,,
1345.307,-67.87,,
1345.322,-66.64,,
1345.337,-67.69,,
1345.352,-73.58,,
1345.367,-69.11,,
1345.382,-68.04,,
1345.397,-66.39,,
1345.412,-68.43,,
1345.427,-69.13,,
1345.442,-66.66,,
1345.457,-65.95,,
1345.472,-67.91,,
1345.487,-66.78,,
1345.502,-64.79,,
1345.517,-64.71,,
1345.532,-65.77,,
1345.547,-66.49,,
1345.562,-64.61,,
1345.577,-66.58,,
1345.592,-67.08,,
1345.607,-68.35,,
1345.622,-66.18,,
1345.637,-66.17,,
1345.652,-67.4,,
1345.667,-68.59,,
1345.682,-66.69,,
1345.697,-66.59,,
1345.712,-68.35,,
1345.727,-68.06,,
1345.742,-66.72,,
1345.757,-67.58,,
1345.772,-73.26,,
1345.787,-67.81,,
1345.802,-68.0,,
1345.817,-65.34,,
1345.832,-64.92,,
1345.847,-66.67,,
1345.862,-68.73,,
1345.877,-66.63,,
1345.892,-64.86,,
1345.907,-65.16,,
1345.922,-66.01,,
1345.937,-65.37,,
1345.952,-65.24,,
1345.967,-66.06,,
1345.982,-67.39,,
1345.997,-65.33,,
1346.012,-65.36,,
1346.027,-66.56,,
1346.042,-67.69,,
1346.057,-65.19,,
1346.072,-64.51,,
1346.087,-65.29,,
1346.102,-64.44,,
1346.117,-63.62,,
1346.132,-64.07,,
1346.147,-65.05,,
1346.162,-64.55,,
1346.177,-64.63,,
1346.192,-67.73,,
1346.207,-65.57,,
1346.222,-64.92,,
1346.237,-65.96,,
1346.252,-66.15,,
1346.267,-66.11,,
1346.282,-67.37,,
1346.297,-66.29,,
1346.312,-66.56,,
1346.327,-66.34,,
1346.342,-67.04,,
1346.357,-67.92,,
1346.372,-66.29,,
1346.387,-65.45,,
1346.402,-65.38,,
1346.417,-64.62,,
1346.432,-64.52,,
1346.447,-64.94,,
1346.462,-65.5,,
1346.477,-64.93,,
1346.492,-65.21,,
1346.507,-69.89,,
1346.522,-67.33,,
1346.537,-65.0,,
1346.552,-67.04,,
1346.567,-70.95,,
1346.582,-65.26,,
1346.597,-65.82,,
1346.612,-65.78,,
1346.627,-65.44,,
1346.642,-65.66,,
1346.657,-66.48,,
1346.672,-65.97,,
1346.687,-64.19,,
1346.702,-65.13,,
1346.717,-66.84,,
1346.732,-64.94,,
1346.747,-64.77,,
1346.762,-65.17,,
1346.777,-65.6,,
1346.792,-64.9,,
1346.807,-64.25,,
1346.822,-64.94,,
1346.837,-66.3,,
1346.852,-65.56,,
1346.867,-65.13,,
1346.882,-66.09,,
1346.897,-69.08,,
1346.912,-70.73,,
1346.927,-86.58,,
1346.942,-70.75,,
1346.957,-68.38,,
1346.972,-70.53,,
1346.987,-69.83,,
1347.002,-67.29,,
1347.017,-66.84,,
1347.032,-71.79,,
1347.047,-67.61,,
1347.062,-66.01,,
1347.077,-68.64,,
1347.092,-210.0,,
1347.107,-69.16,,
1347.122,-68.0,,
1347.137,-74.15,,
1347.152,-74.58,,
1347.167,-67.89,,
1347.182,-70.81,,
1347.197,-70.56,,
1347.212,-68.3,,
1347.227,-69.55,,
1347.242,-68.75,,
1347.257,-68.85,,
1347.272,-67.45,,
1347.287,-67.16,,
1347.302,-69.01,,
1347.317,-68.12,,
1347.332,-67.96,,
1347.347,-210.0,,
1347.362,-69.12,,
1347.377,-66.19,,
1347.392,-67.53,,
1347.407,-77.41,,
1347.422,-69.43,,
1347.437,-68.07,,
1347.452,-210.0,,
1347.467,-210.0,,
1347.482,-68.89,,
1347.497,-69.28,,
1347.512,-69.18,,
1347.527,-69.35,,
1347.542,-69.88,,
1347.557,-67.25,,
1347.572,-68.0,,
1347.587,-69.48,,
1347.602,-69.03,,
1347.617,-66.92,,
1347.632,-70.8,,
1347.647,-68.7,,
1347.662,-73.21,,
1347.677,-70.42,,
1347.692,-68.73,,
1347.707,-68.94,,
1347.722,-70.22,,
1347.737,-68.68,,
1347.752,-67.71,,
1347.767,-71.34,,
1347.782,-72.04,,
1347.797,-68.41,,
1347.812,-69.96,,
1347.827,-82.06,,
1347.842,-73.42,,
1347.857,-68.61,,
1347.872,-210.0,,
1347.887,-74.49,,
1347.902,-66.07,,
1347.917,-68.69,,
1347.932,-67.75,,
1347.947,-65.32,,
1347.962,-66.32,,
1347.977,-67.16,,
1347.992,-67.68,,
1348.007,-66.03,,
1348.022,-68.04,,
1348.037,-69.16,,
1348.052,-68.65,,
1348.067,-68.35,,
1348.082,-69.89,,
1348.097,-65.81,,
1348.112,-65.15,,
1348.127,-68.3,,
1348.142,-70.97,,
1348.157,-65.59,,
1348.172,-65.21,,
1348.187,-68.3,,
1348.202,-67.41,,
1348.217,-65.04,,
1348.232,-65.62,,
1348.247,-68.13,,
1348.262,-67.42,,
1348.277,-66.01,,
1348.292,-68.29,,
1348.307,-70.53,,
1348.322,-66.33,,
1348.337,-69.49,,
1348.352,-66.52,,
1348.367,-64.61,,
1348.382,-65.9,,
1348.397,-73.34,,
1348.412,-67.8,,
1348.427,-65.76,,
1348.442,-66.29,,
1348.457,-67.12,,
1348.472,-64.95,,
1348.487,-64.44,,
1348.502,-65.74,,
1348.517,-66.62,,
1348.532,-64.7,,
1348.547,-64.26,,
1348.562,-66.28,,
1348.577,-64.09,,
1348.592,-63.07,,
1348.607,-64.4,,
1348.622,-65.9,,
1348.637,-63.32,,
1348.652,-64.27,,
1348.667,-65.79,,
1348.682,-63.71,,
1348.697,-64.02,,
1348.712,-65.38,,
1348.727,-65.52,,
1348.742,-63.93,,
1348.757,-64.01,,
1348.772,-65.52,,
1348.787,-63.8,,
1348.802,-63.16,,
1348.817,-64.23,,
1348.832,-65.71,,
1348.847,-63.39,,
1348.862,-65.49,,
1348.877,-64.05,,
1348.892,-62.98,,
1348.907,-64.96,,
1348.922,-65.67,,
1348.937,-63.75,,
1348.952,-63.86,,
1348.967,-64.67,,
1348.982,-66.67,,
1348.997,-63.9,,
1349.012,-64.54,,
1349.027,-68.09,,
1349.042,-67.66,,
1349.057,-64.26,,
1349.072,-64.39,,
1349.087,-66.22,,
1349.102,-66.57,,
1349.117,-66.12,,
1349.132,-65.54,,
1349.147,-65.69,,
1349.162,-65.56,,
1349.177,-69.04,,
1349.193,-66.66,,
1349.207,-64.45,,
1349.222,-65.79,,
1349.237,-69.72,,
1349.252,-67.12,,
1349.267,-63.84,,
1349.282,-65.95,,
1349.297,-67.65,,
1349.313,-64.83,,
1349.328,-65.54,,
1349.343,-66.27,,
1349.357,-64.93,,
1349.372,-65.01,,
1349.387,-66.39,,
1349.402,-65.57,,
1349.417,-64.39,,
1349.432,-63.95,,
1349.448,-65.0,,
1349.463,-63.82,,
1349.478,-63.29,,
1349.492,-65.17,,
1349.507,-64.81,,
1349.522,-62.99,,
1349.537,-63.46,,
1349.552,-66.22,,
1349.568,-64.7,,
1349.583,-64.21,,
1349.598,-68.99,,
1349.613,-67.47,,
1349.628,-65.07,,
1349.642,-66.93,,
1349.657,-70.5,,
1349.672,-65.16,,
1349.688,-64.5,,
1349.703,-66.48,,
1349.718,-64.49,,
1349.733,-63.83,,
1349.748,-65.91,,
1349.763,-66.75,,
1349.777,-63.85,,
1349.792,-64.13,,
1349.807,-67.18,,
1349.823,-65.99,,
1349.838,-63.36,,
1349.853,-65.33,,
1349.868,-64.71,,
1349.883,-63.79,,
1349.898,-64.81,,
1349.913,-66.55,,
1349.927,-63.84,,
1349.943,-65.28,,
1349.958,-67.33,,
1349.973,-65.65,,
1349.988,-63.95,,
1350.003,-66.38,,
1350.018,-66.75,,
1350.033,-63.7,,
1350.048,-63.21,,
1350.063,-64.82,,
1350.078,-65.13,,
1350.093,-63.76,,
1350.108,-65.08,,
1350.123,-67.7,,
1350.138,-66.84,,
1350.153,-64.27,,
1350.168,-65.78,,
1350.183,-63.87,,
1350.198,-64.32,,
1350.213,-66.71,,
1350.228,-65.3,,
1350.243,-63.48,,
1350.258,-64.6,,
1350.273,-65.77,,
1350.288,-63.59,,
1350.303,-63.14,,
1350.318,-64.38,,
1350.333,-63.9,,
1350.348,-62.63,,
1350.363,-62.58,,
1350.378,-64.26,,
1350.393,-63.95,,
1350.408,-64.33,,
1350.423,-64.45,,
1350.438,-64.47,,
1350.453,-65.01,,
1350.468,-67.49,,
1350.483,-66.78,,
1350.498,-64.66,,
1350.513,-66.43,,
1350.528,-69.22,,
1350.543,-67.13,,
1350.558,-63.98,,
1350.573,-64.67,,
1350.588,-66.57,,
1350.603,-63.59,,
1350.618,-62.82,,
1350.633,-64.76,,
1350.648,-63.58,,
1350.663,-63.21,,
1350.678,-63.89,,
1350.693,-64.02,,
1350.708,-62.99,,
1350.723,-65.84,,
1350.738,-66.24,,
1350.753,-63.43,,
1350.768,-63.94,,
1350.783,-67.67,,
1350.798,-66.44,,
1350.813,-63.77,,
1350.828,-64.96,,
1350.843,-67.62,,
1350.858,-64.86,,
1350.873,-63.25,,
1350.888,-65.29,,
1350.903,-65.72,,
1350.918,-63.14,,
1350.933,-63.66,,
1350.948,-62.63,,
1350.963,-62.24,,
1350.978,-63.74,,
1350.993,-64.01,,
1351.008,-61.86,,
1351.023,-61.98,,
1351.038,-63.92,,
1351.053,-63.46,,
1351.068,-62.16,,
1351.083,-63.2,,
1351.098,-65.38,,
1351.113,-62.87,,
1351.128,-61.8,,
1351.143,-62.45,,
1351.158,-63.17,,
1351.173,-61.83,,
1351.188,-62.07,,
1351.203,-63.08,,
1351.218,-62.16,,
1351.233,-61.86,,
1351.248,-63.73,,
1351.263,-62.52,,
1351.278,-61.86,,
1351.293,-63.07,,
1351.308,-64.46,,
1351.323,-62.74,,
1351.338,-62.86,,
1351.353,-64.43,,
1351.368,-64.74,,
1351.383,-63.13,,
1351.398,-63.96,,
1351.413,-63.79,,
1351.428,-62.62,,
1351.443,-62.88,,
1351.458,-63.93,,
1351.473,-62.53,,
1351.488,-62.12,,
1351.503,-62.67,,
1351.518,-63.09,,
1351.533,-62.01,,
1351.548,-63.0,,
1351.563,-64.36,,
1351.578,-63.28,,
1351.593,-62.51,,
1351.608,-64.65,,
1351.623,-65.41,,
1351.638,-63.13,,
1351.653,-63.96,,
1351.668,-64.09,,
1351.683,-64.0,,
1351.698,-64.13,,
1351.713,-67.46,,
1351.728,-64.58,,
1351.743,-63.12,,
1351.758,-65.26,,
1351.773,-65.74,,
1351.788,-62.91,,
1351.803,-63.11,,
1351.818,-65.66,,
1351.833,-64.67,,
1351.848,-62.87,,
1351.863,-64.07,,
1351.878,-67.95,,
1351.893,-64.22,,
1351.908,-66.31,,
1351.923,-67.03,,
1351.938,-66.98,,
1351.953,-68.77,,
1351.968,-73.42,,
1351.983,-66.13,,
1351.998,-65.32,,
1352.013,-83.08,,
1352.028,-210.0,,
1352.043,-66.44,,
1352.058,-65.91,,
1352.073,-71.65,,
1352.088,-67.53,,
1352.103,-66.9,,
1352.118,-68.65,,
1352.133,-66.96,,
1352.148,-66.25,,
1352.163,-68.17,,
1352.178,-69.9,,
1352.193,-75.33,,
1352.208,-71.2,,
1352.223,-70.6,,
1352.238,-72.49,,
1352.253,-66.52,,
1352.268,-73.11,,
1352.283,-69.8,,
1352.298,-73.22,,
1352.313,-73.42,,
1352.328,-71.07,,
1352.343,-69.82,,
1352.358,-70.35,,
1352.373,-71.39,,
1352.388,-68.28,,
1352.403,-69.2,,
1352.418,-68.08,,
1352.433,-67.3,,
1352.448,-68.03,,
1352.463,-67.38,,
1352.478,-65.56,,
1352.493,-68.07,,
1352.508,-210.0,,
1352.523,-68.79,,
1352.538,-68.75,,
1352.553,-66.86,,
1352.568,-68.58,,
1352.583,-68.01,,
1352.598,-69.04,,
1352.613,-66.93,,
1352.628,-68.45,,
1352.643,-68.18,,
1352.658,-68.2,,
1352.673,-69.05,,
1352.688,-64.96,,
1352.703,-67.19,,
1352.718,-66.95,,
1352.733,-65.35,,
1352.748,-66.11,,
1352.763,-67.01,,
1352.778,-65.5,,
1352.793,-66.44,,
1352.808,-67.23,,
1352.823,-67.61,,
1352.838,-65.95,,
1352.853,-67.17,,
1352.868,-67.55,,
1352.883,-66.64,,
1352.898,-67.02,,
1352.913,-67.19,,
1352.928,-66.37,,
1352.943,-66.03,,
1352.958,-67.07,,
1352.973,-67.17,,
1352.988,-67.06,,
1353.003,-67.27,,
1353.018,-67.33,,
1353.033,-65.76,,
1353.048,-66.15,,
1353.063,-66.82,,
1353.078,-67.35,,
1353.093,-67.81,,
1353.108,-64.92,,
1353.123,-65.9,,
1353.138,-66.18,,
1353.153,-67.01,,
1353.168,-67.09,,
1353.183,-66.7,,
1353.198,-66.48,,
1353.213,-66.65,,
1353.228,-66.76,,
1353.243,-65.52,,
1353.258,-66.78,,
1353.273,-64.47,,
1353.288,-67.51,,
1353.303,-66.08,,
1353.318,-64.34,,
1353.333,-65.66,,
1353.348,-66.52,,
1353.363,-66.91,,
1353.378,-65.66,,
1353.393,-66.15,,
1353.408,-66.42,,
1353.423,-67.21,,
1353.438,-67.21,,
1353.453,-68.22,,
1353.468,-67.78,,
1353.483,-210.0,,
1353.498,-75.28,,
1353.513,-66.53,,
1353.528,-68.38,,
1353.543,-75.53,,
1353.558,-72.18,,
1353.573,-66.76,,
1353.588,-66.84,,
1353.603,-66.98,,
1353.618,-68.2,,
1353.633,-67.2,,
1353.648,-66.1,,
1353.663,-66.84,,
1353.678,-67.53,,
1353.693,-71.26,,
1353.708,-68.39,,
1353.723,-65.75,,
1353.738,-69.9,,
1353.753,-69.95,,
1353.768,-71.1,,
1353.783,-68.94,,
1353.798,-67.75,,
1353.813,-69.73,,
1353.828,-68.58,,
1353.843,-67.59,,
1353.858,-66.77,,
1353.873,-69.58,,
1353.888,-69.24,,
1353.903,-70.85,,
1353.918,-66.02,,
1353.933,-67.65,,
1353.948,-66.84,,
1353.963,-67.23,,
1353.978,-67.24,,
1353.993,-67.77,,
1354.008,-67.28,,
1354.023,-65.0,,
1354.038,-66.51,,
1354.053,-66.65,,
1354.068,-68.08,,
1354.083,-66.24,,
1354.098,-67.94,,
1354.113,-68.16,,
1354.128,-65.32,,
1354.143,-65.6,,
1354.158,-65.41,,
1354.173,-64.15,,
1354.188,-64.98,,
1354.203,-64.84,,
1354.218,-64.5,,
1354.233,-64.23,,
1354.248,-65.09,,
1354.263,-65.09,,
1354.278,-65.35,,
1354.293,-65.7,,
1354.308,-66.45,,
1354.323,-67.33,,
1354.338,-66.66,,
1354.353,-67.24,,
1354.368,-64.9,,
1354.383,-65.69,,
1354.398,-67.17,,
1354.413,-66.08,,
1354.428,-64.81,,
1354.443,-65.85,,
1354.458,-65.28,,
1354.473,-63.99,,
1354.488,-63.47,,
1354.503,-64.06,,
1354.518,-64.45,,
1354.533,-64.93,,
1354.548,-63.34,,
1354.563,-63.06,,
1354.578,-63.88,,
1354.593,-64.79,,
1354.608,-64.68,,
1354.623,-64.1,,
1354.638,-64.16,,
1354.653,-65.1,,
1354.668,-65.0,,
1354.683,-64.13,,
1354.698,-63.25,,
1354.713,-63.4,,
1354.728,-64.97,,
1354.743,-63.4,,
1354.758,-63.24,,
1354.773,-62.76,,
1354.788,-63.5,,
1354.803,-63.57,,
1354.818,-63.26,,
1354.833,-62.65,,
1354.848,-63.16,,
1354.863,-63.33,,
1354.878,-64.31,,
1354.893,-62.46,,
1354.908,-61.9,,
1354.923,-63.16,,
1354.938,-62.96,,
1354.953,-63.1,,
1354.968,-63.35,,
1354.983,-62.86,,
1354.998,-63.05,,
1355.013,-63.55,,
1355.028,-63.74,,
1355.043,-63.77,,
1355.058,-63.81,,
1355.073,-64.18,,
1355.088,-65.14,,
1355.103,-63.33,,
1355.118,-63.48,,
1355.133,-65.3,,
1355.148,-66.8,,
1355.163,-67.1,,
1355.178,-67.1,,
1355.193,-66.0,,
1355.208,-68.0,,
1355.223,-67.61,,
1355.238,-65.52,,
1355.253,-65.1,,
1355.268,-64.84,,
1355.283,-66.39,,
1355.298,-65.03,,
1355.313,-63.83,,
1355.328,-63.79,,
1355.343,-63.88,,
1355.358,-63.74,,
1355.373,-64.05,,
1355.388,-63.28,,
1355.403,-63.58,,
1355.418,-64.03,,
1355.433,-63.53,,
1355.448,-63.31,,
1355.463,-62.6,,
1355.478,-63.12,,
1355.493,-63.97,,
1355.508,-63.15,,
1355.523,-63.01,,
1355.538,-62.72,,
1355.553,-63.25,,
1355.568,-63.48,,
1355.583,-62.98,,
1355.598,-63.2,,
1355.613,-63.59,,
1355.628,-64.54,,
1355.643,-64.84,,
1355.658,-63.44,,
1355.673,-63.59,,
1355.688,-63.77,,
1355.703,-65.86,,
1355.718,-66.07,,
1355.733,-63.91,,
1355.748,-64.29,,
1355.763,-66.61,,
1355.778,-65.46,,
1355.793,-64.06,,
1355.808,-65.59,,
1355.823,-65.73,,
1355.838,-67.63,,
1355.853,-66.52,,
1355.868,-66.87,,
1355.883,-64.4,,
1355.898,-65.92,,
1355.913,-67.9,,
1355.928,-66.6,,
1355.943,-65.28,,
1355.958,-67.36,,
1355.973,-66.65,,
1355.988,-65.29,,
1356.003,-65.2,,
1356.018,-64.63,,
1356.033,-65.27,,
1356.048,-65.65,,
1356.063,-65.95,,
1356.078,-64.88,,
1356.093,-64.11,,
1356.108,-65.49,,
1356.123,-65.77,,
1356.138,-63.42,,
1356.153,-63.13,,
1356.168,-64.31,,
1356.183,-64.89,,
1356.198,-66.13,,
1356.213,-63.83,,
1356.228,-63.93,,
1356.243,-65.03,,
1356.258,-65.94,,
1356.273,-65.76,,
1356.288,-64.59,,
1356.303,-65.67,,
1356.318,-65.74,,
1356.333,-65.42,,
1356.348,-65.44,,
1356.363,-66.66,,
1356.378,-66.51,,
1356.393,-72.1,,
1356.408,-68.25,,
1356.423,-66.25,,
1356.438,-71.4,,
1356.453,-71.82,,
1356.468,-71.36,,
1356.483,-210.0,,
1356.498,-210.0,,
1356.513,-210.0,,
1356.528,-210.0,,
1356.543,-78.18,,
1356.558,-68.22,,
1356.573,-69.53,,
1356.588,-210.0,,
1356.603,-72.23,,
1356.618,-68.48,,
1356.633,-69.5,,
1356.648,-69.54,,
1356.663,-70.58,,
1356.678,-73.78,,
1356.693,-72.47,,
1356.708,-70.43,,
1356.723,-74.06,,
1356.738,-85.46,,
1356.753,-210.0,,
1356.768,-71.39,,
1356.783,-73.24,,
1356.798,-210.0,,
1356.813,-80.13,,
1356.828,-76.62,,
1356.843,-71.31,,
1356.858,-71.47,,
1356.873,-71.39,,
1356.888,-71.73,,
1356.903,-71.08,,
1356.918,-210.0,,
1356.933,-74.92,,
1356.948,-210.0,,
1356.963,-72.83,,
1356.978,-69.94,,
1356.993,-210.0,,
1357.008,-210.0,,
1357.023,-210.0,,
1357.038,-210.0,,
1357.053,-210.0,,
1357.068,-79.28,,
1357.083,-210.0,,
1357.098,-210.0,,
1357.113,-210.0,,
1357.128,-73.67,,
1357.143,-210.0,,
1357.158,-210.0,,
1357.173,-210.0,,
1357.188,-73.27,,
1357.203,-70.53,,
1357.219,-210.0,,
1357.233,-74.08,,
1357.248,-75.72,,
1357.263,-82.08,,
1357.278,-210.0,,
1357.293,-210.0,,
1357.308,-210.0,,
1357.323,-76.92,,
1357.339,-210.0,,
1357.354,-210.0,,
1357.369,-76.48,,
1357.383,-84.0,,
1357.398,-69.79,,
1357.413,-73.12,,
1357.428,-87.85,,
1357.443,-70.36,,
1357.458,-68.91,,
1357.474,-210.0,,
1357.489,-72.42,,
1357.504,-69.41,,
1357.518,-70.47,,
1357.533,-70.65,,
1357.548,-70.25,,
1357.563,-210.0,,
1357.578,-210.0,,
1357.594,-210.0,,
1357.609,-77.33,,
1357.624,-210.0,,
1357.639,-210.0,,
1357.654,-210.0,,
1357.668,-210.0,,
1357.683,-210.0,,
1357.698,-210.0,,
1357.714,-210.0,,
1357.729,-79.43,,
1357.744,-76.13,,
1357.759,-69.61,,
1357.774,-210.0,,
1357.789,-77.99,,
1357.803,-74.97,,
1357.818,-70.83,,
1357.833,-76.0,,
1357.849,-80.4,,
1357.864,-83.45,,
1357.879,-71.21,,
1357.894,-210.0,,
1357.909,-210.0,,
1357.924,-210.0,,
1357.939,-82.07,,
1357.953,-80.19,,
1357.969,-70.98,,
1357.984,-70.65,,
1357.999,-73.86,,
1358.014,-70.2,,
1358.029,-67.49,,
1358.044,-72.46,,
1358.059,-75.23,,
1358.074,-68.89,,
1358.089,-66.52,,
1358.104,-70.8,,
1358.119,-65.72,,
1358.134,-65.94,,
1358.149,-66.45,,
1358.164,-65.68,,
1358.179,-65.01,,
1358.194,-66.84,,
1358.209,-69.14,,
1358.224,-66.27,,
1358.239,-66.74,,
1358.254,-68.53,,
1358.269,-67.88,,
1358.284,-66.27,,
1358.299,-70.36,,
1358.314,-67.13,,
1358.329,-66.24,,
1358.344,-66.38,,
1358.359,-66.65,,
1358.374,-65.73,,
1358.389,-65.66,,
1358.404,-67.26,,
1358.419,-67.02,,
1358.434,-66.39,,
1358.449,-75.25,,
1358.464,-71.33,,
1358.479,-65.61,,
1358.494,-69.1,,
1358.509,-93.85,,
1358.524,-68.59,,
1358.539,-70.09,,
1358.554,-210.0,,
1358.569,-210.0,,
1358.584,-67.14,,
1358.599,-76.31,,
1358.614,-80.82,,
1358.629,-67.07,,
1358.644,-70.18,,
1358.659,-70.41,,
1358.674,-66.13,,
1358.689,-66.85,,
1358.704,-69.98,,
1358.719,-67.27,,
1358.734,-67.1,,
1358.749,-210.0,,
1358.764,-73.61,,
1358.779,-67.23,,
1358.794,-75.13,,
1358.809,-73.11,,
1358.824,-68.64,,
1358.839,-70.92,,
1358.854,-210.0,,
1358.869,-71.99,,
1358.884,-71.01,,
1358.899,-210.0,,
1358.914,-67.14,,
1358.929,-65.78,,
1358.944,-73.21,,
1358.959,-69.81,,
1358.974,-67.4,,
1358.989,-73.46,,
1359.004,-83.65,,
1359.019,-68.79,,
1359.034,-70.42,,
1359.049,-210.0,,
1359.064,-67.98,,
1359.079,-67.53,,
1359.094,-210.0,,
1359.109,-77.84,,
1359.124,-71.57,,
1359.139,-210.0,,
1359.154,-210.0,,
1359.169,-210.0,,
1359.184,-210.0,,
1359.199,-210.0,,
1359.214,-210.0,,
1359.229,-73.07,,
1359.244,-210.0,,
1359.259,-210.0,,
1359.274,-68.93,,
1359.289,-76.94,,
1359.304,-210.0,,
1359.319,-71.18,,
1359.334,-71.11,,
1359.349,-210.0,,
1359.364,-210.0,,
1359.379,-210.0,,
1359.394,-210.0,,
1359.409,-210.0,,
1359.424,-75.96,,
1359.439,-210.0,,
1359.454,-210.0,,
1359.469,-71.08,,
1359.484,-210.0,,
1359.499,-210.0,,
1359.514,-73.29,,
1359.529,-70.44,,
1359.544,-210.0,,
1359.559,-69.33,,
1359.574,-65.43,,
1359.589,-71.6,,
1359.604,-68.49,,
1359.619,-66.91,,
1359.634,-68.35,,
1359.649,-74.66,,
1359.664,-67.45,,
1359.679,-66.49,,
1359.694,-74.71,,
1359.709,-68.0,,
1359.724,-65.21,,
1359.739,-67.44,,
1359.754,-66.06,,
1359.769,-65.57,,
1359.784,-65.87,,
1359.799,-67.17,,
1359.814,-64.82,,
1359.829,-64.95,,
1359.844,-65.36,,
1359.859,-63.26,,
1359.874,-62.8,,
1359.889,-64.88,,
1359.904,-64.56,,
1359.919,-64.28,,
1359.934,-65.23,,
1359.949,-65.21,,
1359.964,-63.65,,
1359.979,-64.16,,
1359.994,-65.43,,
1360.009,-63.46,,
1360.024,-64.51,,
1360.039,-67.88,,
1360.054,-64.22,,
1360.069,-64.53,,
1360.084,-66.73,,
1360.099,-65.43,,
1360.114,-63.93,,
1360.129,-64.12,,
1360.144,-65.95,,
1360.159,-63.83,,
1360.174,-64.46,,
1360.189,-67.73,,
1360.204,-66.47,,
1360.219,-64.93,,
1360.234,-68.0,,
1360.249,-65.06,,
1360.264,-64.27,,
1360.279,-66.56,,
1360.294,-70.37,,
1360.309,-65.72,,
1360.324,-68.93,,
1360.339,-210.0,,
1360.354,-68.58,,
1360.369,-67.17,,
1360.384,-72.7,,
1360.399,-66.67,,
1360.414,-65.93,,
1360.429,-68.76,,
1360.444,-70.1,,
1360.459,-65.95,,
1360.474,-74.04,,
1360.489,-210.0,,
1360.504,-66.58,,
1360.519,-66.37,,
1360.534,-77.9,,
1360.549,-69.26,,
1360.564,-68.27,,
1360.579,-73.94,,
1360.594,-210.0,,
1360.609,-71.56,,
1360.624,-210.0,,
1360.639,-210.0,,
1360.654,-74.2,,
1360.669,-210.0,,
1360.684,-210.0,,
1360.699,-210.0,,
1360.714,-210.0,,
1360.729,-210.0,,
1360.744,-210.0,,
1360.759,-210.0,,
1360.774,-210.0,,
1360.789,-210.0,,
1360.804,-210.0,,
1360.819,-210.0,,
1360.834,-210.0,,
1360.849,-210.0,,
1360.864,-210.0,,
1360.879,-210.0,,
1360.894,-210.0,,
1360.909,-210.0,,
1360.924,-210.0,,
1360.939,-210.0,,
1360.954,-210.0,,
1360.969,-210.0,,
1360.984,-210.0,,
1360.999,-210.0,,
1361.014,-210.0,,
1361.029,-210.0,,
1361.044,-210.0,,
1361.059,-210.0,,
1361.074,-210.0,,
1361.089,-210.0,,
1361.104,-210.0,,
1361.119,-210.0,,
1361.134,-210.0,,
1361.149,-210.0,,
1361.164,-210.0,,
1361.179,-210.0,,
1361.194,-210.0,,
1361.209,-210.0,,
1361.224,-210.0,,
1361.239,-210.0,,
1361.254,-210.0,,
1361.269,-210.0,,
1361.284,-210.0,,
1361.299,-210.0,,
1361.314,-210.0,,
1361.329,-210.0,,
1361.344,-210.0,,
1361.359,-210.0,,
1361.374,-210.0,,
1361.389,-210.0,,
1361.404,-210.0,,
1361.419,-210.0,,
1361.434,-210.0,,
1361.449,-210.0,,
1361.464,-210.0,,
1361.479,-210.0,,
1361.494,-210.0,,
1361.509,-210.0,,
1361.524,-210.0,,
1361.539,-210.0,,
1361.554,-210.0,,
1361.569,-210.0,,
1361.584,-210.0,,
1361.599,-210.0,,
1361.614,-210.0,,
1361.629,-210.0,,
1361.644,-70.5,,
1361.659,-77.72,,
1361.674,-210.0,,
1361.689,-72.78,,
1361.704,-79.3,,
1361.719,-210.0,,
1361.734,-210.0,,
1361.749,-67.43,,
1361.764,-210.0,,
1361.779,-210.0,,
1361.794,-67.61,,
1361.809,-69.46,,
1361.824,-210.0,,
1361.839,-66.48,,
1361.854,-69.67,,
1361.869,-210.0,,
1361.884,-68.28,,
1361.899,-69.95,,
1361.914,-210.0,,
1361.929,-79.26,,
1361.944,-68.37,,
1361.959,-74.45,,
1361.974,-70.01,,
1361.989,-67.07,,
1362.004,-69.19,,
1362.019,-75.25,,
1362.034,-66.21,,
1362.049,-67.66,,
1362.064,-210.0,,
1362.079,-69.37,,
1362.094,-66.5,,
1362.109,-71.14,,
1362.124,-69.42,,
1362.139,-66.47,,
1362.154,-70.78,,
1362.169,-66.2,,
1362.184,-64.76,,
1362.199,-68.59,,
1362.214,-70.58,,
1362.229,-64.56,,
1362.244,-65.16,,
1362.259,-66.42,,
1362.274,-66.13,,
1362.289,-64.18,,
1362.304,-67.74,,
1362.319,-65.82,,
1362.334,-64.27,,
1362.349,-68.19,,
1362.364,-68.79,,
1362.379,-66.92,,
1362.394,-69.3,,
1362.409,-70.73,,
1362.424,-67.01,,
1362.439,-71.61,,
1362.454,-210.0,,
1362.469,-72.48,,
1362.484,-66.72,,
1362.499,-69.88,,
1362.514,-69.5,,
1362.529,-66.05,,
1362.544,-68.47,,
1362.559,-69.39,,
1362.574,-65.56,,
1362.589,-67.95,,
1362.604,-76.7,,
1362.619,-67.86,,
1362.634,-66.63,,
1362.649,-73.68,,
1362.664,-72.25,,
1362.679,-70.42,,
1362.694,-75.67,,
1362.709,-70.5,,
1362.724,-65.95,,
1362.739,-70.82,,
1362.754,-210.0,,
1362.769,-68.01,,
1362.784,-67.42,,
1362.799,-67.66,,
1362.814,-67.89,,
1362.829,-67.43,,
1362.844,-70.12,,
1362.859,-66.74,,
1362.874,-65.56,,
1362.889,-70.14,,
1362.904,-69.68,,
1362.919,-66.21,,
1362.934,-68.74,,
1362.949,-69.44,,
1362.964,-66.41,,
1362.979,-69.99,,
1362.994,-210.0,,
1363.009,-68.11,,
1363.024,-68.68,,
1363.039,-210.0,,
1363.054,-210.0,,
1363.069,-74.24,,
1363.084,-210.0,,
1363.099,-210.0,,
1363.114,-74.11,,
1363.129,-210.0,,
1363.144,-210.0,,
1363.159,-78.45,,
1363.174,-210.0,,
1363.189,-210.0,,
1363.204,-210.0,,
1363.219,-210.0,,
1363.234,-210.0,,
1363.249,-210.0,,
1363.264,-210.0,,
1363.279,-210.0,,
1363.294,-210.0,,
1363.309,-210.0,,
1363.324,-210.0,,
1363.339,-210.0,,
1363.354,-71.62,,
1363.369,-78.69,,
1363.384,-79.52,,
1363.399,-66.74,,
1363.414,-66.41,,
1363.429,-82.82,,
1363.444,-72.15,,
1363.459,-65.59,,
1363.474,-69.7,,
1363.489,-70.51,,
1363.504,-66.94,,
1363.519,-75.7,,
1363.534,-210.0,,
1363.549,-67.62,,
1363.564,-67.78,,
1363.579,-210.0,,
1363.594,-75.19,,
1363.609,-210.0,,
1363.624,-210.0,,
1363.639,-80.43,,
1363.654,-67.79,,
1363.669,-210.0,,
1363.684,-210.0,,
1363.699,-68.54,,
1363.714,-71.61,,
1363.729,-210.0,,
1363.744,-75.19,,
1363.759,-210.0,,
1363.774,-210.0,,
1363.789,-210.0,,
1363.804,-210.0,,
1363.819,-210.0,,
1363.834,-210.0,,
1363.849,-210.0,,
1363.864,-210.0,,
1363.879,-210.0,,
1363.894,-210.0,,
1363.909,-210.0,,
1363.924,-210.0,,
1363.939,-82.62,,
1363.954,-81.83,,
1363.969,-210.0,,
1363.984,-210.0,,
1363.999,-74.29,,
1364.014,-210.0,,
1364.029,-210.0,,
1364.044,-71.37,,
1364.059,-210.0,,
1364.074,-79.27,,
1364.089,-67.57,,
1364.104,-69.37,,
1364.119,-210.0,,
1364.134,-68.77,,
1364.149,-72.75,,
1364.164,-210.0,,
1364.179,-76.61,,
1364.194,-69.59,,
1364.209,-210.0,,
1364.224,-80.4,,
1364.239,-67.14,,
1364.254,-77.07,,
1364.269,-210.0,,
1364.284,-71.19,,
1364.299,-210.0,,
1364.314,-210.0,,
1364.329,-72.0,,
1364.344,-210.0,,
1364.359,-210.0,,
1364.374,-210.0,,
1364.389,-210.0,,
1364.404,-210.0,,
1364.419,-210.0,,
1364.434,-210.0,,
1364.449,-210.0,,
1364.464,-210.0,,
1364.479,-210.0,,
1364.494,-210.0,,
1364.509,-210.0,,
1364.524,-210.0,,
1364.539,-210.0,,
1364.554,-210.0,,
1364.569,-210.0,,
1364.584,-79.85,,
1364.599,-210.0,,
1364.614,-69.91,,
1364.629,-67.91,,
1364.644,-77.12,,
1364.659,-210.0,,
1364.674,-82.62,,
1364.689,-210.0,,
1364.704,-210.0,,
1364.719,-92.28,,
1364.734,-80.59,,
1364.749,-210.0,,
1364.764,-71.72,,
1364.779,-69.6,,
1364.794,-78.18,,
1364.809,-69.57,,
1364.824,-66.56,,
1364.839,-67.46,,
1364.854,-68.78,,
1364.869,-65.24,,
1364.884,-67.52,,
1364.899,-72.81,,
1364.914,-66.25,,
1364.929,-71.12,,
1364.944,-78.33,,
1364.959,-73.29,,
1364.974,-68.02,,
1364.989,-75.94,,
1365.004,-76.6,,
1365.019,-69.91,,
1365.034,-75.91,,
1365.049,-71.48,,
1365.064,-68.3,,
1365.079,-210.0,,
1365.094,-210.0,,
1365.109,-72.9,,
1365.124,-69.36,,
1365.139,-210.0,,
1365.154,-69.94,,
1365.169,-69.23,,
1365.184,-88.63,,
1365.199,-72.93,,
1365.214,-68.29,,
1365.229,-85.77,,
1365.245,-210.0,,
1365.259,-69.14,,
1365.274,-69.5,,
1365.289,-69.32,,
1365.304,-65.78,,
1365.319,-68.96,,
1365.334,-72.53,,
1365.349,-67.83,,
1365.365,-67.2,,
1365.38,-76.81,,
1365.395,-73.51,,
1365.409,-71.66,,
1365.424,-210.0,,
1365.439,-70.98,,
1365.454,-66.68,,
1365.469,-71.37,,
1365.484,-210.0,,
1365.5,-72.94,,
1365.515,-210.0,,
1365.53,-79.76,,
1365.544,-74.36,,
1365.559,-210.0,,
1365.574,-210.0,,
1365.589,-210.0,,
1365.604,-210.0,,
1365.62,-210.0,,
1365.635,-210.0,,
1365.65,-210.0,,
1365.665,-210.0,,
1365.68,-210.0,,
1365.694,-210.0,,
1365.709,-210.0,,
1365.724,-210.0,,
1365.74,-210.0,,
1365.755,-210.0,,
1365.77,-76.86,,
1365.785,-80.92,,
1365.8,-210.0,,
1365.815,-210.0,,
1365.83,-210.0,,
1365.844,-210.0,,
1365.859,-210.0,,
1365.875,-210.0,,
1365.89,-210.0,,
1365.905,-210.0,,
1365.92,-210.0,,
1365.935,-75.16,,
1365.95,-210.0,,
1365.965,-210.0,,
1365.979,-210.0,,
1365.995,-210.0,,
1366.01,-210.0,,
1366.025,-210.0,,
1366.04,-210.0,,
1366.055,-210.0,,
1366.07,-210.0,,
1366.085,-210.0,,
1366.1,-210.0,,
1366.115,-210.0,,
1366.13,-210.0,,
1366.145,-210.0,,
1366.16,-210.0,,
1366.175,-210.0,,
1366.19,-210.0,,
1366.205,-210.0,,
1366.22,-210.0,,
1366.235,-210.0,,
1366.25,-210.0,,
1366.265,-210.0,,
1366.28,-210.0,,
1366.295,-210.0,,
1366.31,-210.0,,
1366.325,-210.0,,
1366.34,-210.0,,
1366.355,-210.0,,
1366.37,-210.0,,
1366.385,-210.0,,
1366.4,-210.0,,
1366.415,-210.0,,
1366.43,-210.0,,
1366.445,-210.0,,
1366.46,-210.0,,
1366.475,-210.0,,
1366.49,-210.0,,
1366.505,-210.0,,
1366.52,-210.0,,
1366.535,-210.0,,
1366.55,-210.0,,
1366.565,-210.0,,
1366.58,-210.0,,
1366.595,-210.0,,
1366.61,-210.0,,
1366.625,-210.0,,
1366.64,-210.0,,
1366.655,-69.22,,
1366.67,-68.48,,
1366.685,-210.0,,
1366.7,-77.91,,
1366.715,-210.0,,
1366.73,-77.87,,
1366.745,-210.0,,
1366.76,-74.54,,
1366.775,-210.0,,
1366.79,-210.0,,
1366.805,-80.08,,
1366.82,-210.0,,
1366.835,-210.0,,
1366.85,-210.0,,
1366.865,-210.0,,
1366.88,-210.0,,
1366.895,-75.23,,
1366.91,-70.33,,
1366.925,-210.0,,
1366.94,-210.0,,
1366.955,-210.0,,
1366.97,-210.0,,
1366.985,-210.0,,
1367.0,-71.6,,
1367.015,-210.0,,
1367.03,-210.0,,
1367.045,-68.01,,
1367.06,-68.24,,
1367.075,-69.59,,
1367.09,-70.1,,
1367.105,-210.0,,
1367.12,-210.0,,
1367.135,-72.37,,
1367.15,-70.64,,
1367.165,-210.0,,
1367.18,-210.0,,
1367.195,-210.0,,
1367.21,-210.0,,
1367.225,-73.91,,
1367.24,-69.93,,
1367.255,-79.44,,
1367.27,-76.36,,
1367.285,-71.16,,
1367.3,-66.3,,
1367.315,-65.5,,
1367.33,-69.21,,
1367.345,-69.24,,
1367.36,-67.88,,
1367.375,-69.6,,
1367.39,-70.08,,
1367.405,-70.34,,
1367.42,-81.23,,
1367.435,-210.0,,
1367.45,-70.05,,
1367.465,-69.14,,
1367.48,-71.62,,
1367.495,-70.04,,
1367.51,-68.55,,
1367.525,-67.08,,
1367.54,-64.93,,
1367.555,-64.6,,
1367.57,-68.53,,
1367.585,-67.07,,
1367.6,-66.39,,
1367.615,-66.91,,
1367.63,-68.52,,
1367.645,-67.1,,
1367.66,-210.0,,
1367.675,-210.0,,
1367.69,-70.42,,
1367.705,-72.82,,
1367.72,-72.22,,
1367.735,-73.03,,
1367.75,-210.0,,
1367.765,-210.0,,
1367.78,-73.35,,
1367.795,-68.6,,
1367.81,-210.0,,
1367.825,-74.03,,
1367.84,-71.33,,
1367.855,-210.0,,
1367.87,-70.91,,
1367.885,-69.03,,
1367.9,-210.0,,
1367.915,-210.0,,
1367.93,-69.48,,
1367.945,-210.0,,
1367.96,-67.93,,
1367.975,-66.4,,
1367.99,-69.12,,
1368.005,-75.04,,
1368.02,-67.36,,
1368.035,-68.0,,
1368.05,-210.0,,
1368.065,-70.49,,
1368.08,-74.74,,
1368.095,-210.0,,
1368.11,-68.49,,
1368.125,-69.14,,
1368.14,-210.0,,
1368.155,-79.11,,
1368.17,-67.66,,
1368.185,-86.92,,
1368.2,-68.18,,
1368.215,-67.32,,
1368.23,-70.98,,
1368.245,-210.0,,
1368.26,-66.88,,
1368.275,-68.39,,
1368.29,-70.96,,
1368.305,-67.89,,
1368.32,-74.47,,
1368.335,-210.0,,
1368.35,-72.61,,
1368.365,-70.73,,
1368.38,-77.55,,
1368.395,-67.81,,
1368.41,-67.55,,
1368.425,-71.05,,
1368.44,-67.05,,
1368.455,-65.85,,
1368.47,-67.06,,
1368.485,-68.85,,
1368.5,-65.32,,
1368.515,-67.97,,
1368.53,-75.0,,
1368.545,-69.07,,
1368.56,-70.78,,
1368.575,-76.83,,
1368.59,-70.22,,
1368.605,-69.88,,
1368.62,-210.0,,
1368.635,-67.05,,
1368.65,-66.95,,
1368.665,-67.38,,
1368.68,-65.48,,
1368.695,-64.56,,
1368.71,-65.04,,
1368.725,-65.09,,
1368.74,-64.19,,
1368.755,-64.23,,
1368.77,-63.71,,
1368.785,-63.43,,
1368.8,-64.19,,
1368.815,-64.11,,
1368.83,-63.77,,
1368.845,-64.14,,
1368.86,-64.21,,
1368.875,-63.82,,
1368.89,-64.22,,
1368.905,-64.68,,
1368.92,-64.11,,
1368.935,-63.78,,
1368.95,-63.8,,
1368.965,-65.85,,
1368.98,-65.79,,
1368.995,-66.76,,
1369.01,-66.08,,
1369.025,-64.88,,
1369.04,-65.72,,
1369.055,-65.69,,
1369.07,-66.9,,
1369.085,-66.17,,
1369.1,-65.49,,
1369.115,-65.36,,
1369.13,-65.5,,
1369.145,-66.92,,
1369.16,-65.06,,
1369.175,-65.52,,
1369.19,-64.48,,
1369.205,-65.56,,
1369.22,-65.51,,
1369.235,-67.66,,
1369.25,-64.43,,
1369.265,-64.19,,
1369.28,-64.25,,
1369.295,-64.7,,
1369.31,-65.13,,
1369.325,-65.02,,
1369.34,-64.15,,
1369.355,-62.66,,
1369.37,-64.17,,
1369.385,-65.8,,
1369.4,-66.18,,
1369.415,-65.47,,
1369.43,-65.67,,
1369.445,-66.09,,
1369.46,-66.73,,
1369.475,-210.0,,
1369.49,-66.75,,
1369.505,-66.58,,
1369.52,-67.39,,
1369.535,-67.62,,
1369.55,-66.52,,
1369.565,-90.11,,
1369.58,-67.7,,
1369.595,-65.98,,
1369.61,-68.34,,
1369.625,-68.65,,
1369.64,-68.15,,
1369.655,-70.09,,
1369.67,-69.11,,
1369.685,-66.04,,
1369.7,-70.39,,
1369.715,-210.0,,
1369.73,-69.83,,
1369.745,-72.11,,
1369.76,-72.88,,
1369.775,-68.09,,
1369.79,-68.07,,
1369.805,-87.87,,
1369.82,-76.73,,
1369.835,-68.16,,
1369.85,-70.66,,
1369.865,-71.12,,
1369.88,-67.81,,
1369.895,-82.92,,
1369.91,-75.33,,
1369.925,-67.32,,
1369.94,-68.65,,
1369.955,-72.37,,
1369.97,-67.32,,
1369.985,-67.06,,
1370.0,-67.91,,
